Timestamp,acc_x,acc_y,acc_z,gyro_x,gyro_y,gyro_z,mag_x,mag_y,mag_z,ppg_r,ppg_b,ppg_ir,ppg_g,Subject
2024-11-19 23:09:33.023000+00:00,-0.5048856,9.611969,-1.8245274,,,,,,,,,,,1
2024-11-19 23:09:33.034000+00:00,-0.5192425,9.6574335,-1.8699911,,,,,,,,,,,1
2024-11-19 23:09:33.032000+00:00,,,,,,,,,,122334.0,168615.0,204001.0,180128.0,1
2024-11-19 23:09:33.037000+00:00,,,,,,,,,,122334.0,168615.0,204001.0,180128.0,1
2024-11-19 23:09:33.022000+00:00,,,,,,,,,,122334.0,168615.0,204001.0,180128.0,1
2024-11-19 23:09:33.009000+00:00,,,,,,,,,,122334.0,168615.0,204001.0,180128.0,1
2024-11-19 23:09:33.012000+00:00,-0.47856456,9.583255,-1.7383858,0.064751714,-0.04153884,-0.008552114,-20068.0,-2566.0,-3322.0,122334.0,168615.0,204001.0,180128.0,1
2024-11-19 23:09:33.017000+00:00,,,,,,,,,,122334.0,168615.0,204001.0,180128.0,1
2024-11-19 23:09:33.100000+00:00,-0.5096713,9.555738,-1.6761724,-0.004886922,-0.040317103,-0.009773844,-20125.0,-2556.0,-3335.0,122221.0,168516.0,203850.0,179965.0,1
2024-11-19 23:09:33.098000+00:00,-0.5096713,9.555738,-1.6761724,,,,,,,,,,,1
2024-11-19 23:09:33.110000+00:00,,,,,,,,,,122221.0,168516.0,203850.0,179965.0,1
2024-11-19 23:09:33.115000+00:00,,,,,,,,,,122221.0,168516.0,203850.0,179965.0,1
2024-11-19 23:09:33.111000+00:00,-0.5192425,9.611969,-1.6797616,,,,,,,,,,,1
2024-11-19 23:09:33.105000+00:00,,,,,,,,,,122221.0,168516.0,203850.0,179965.0,1
2024-11-19 23:09:33.122000+00:00,-0.5144569,9.616755,-1.6953149,,,,,,,,,,,1
2024-11-19 23:09:33.120000+00:00,,,,,,,,,,122221.0,168516.0,203850.0,179965.0,1
2024-11-19 23:09:33.125000+00:00,,,,,,,,,,122242.0,168492.0,203879.0,179915.0,1
2024-11-19 23:09:33.145000+00:00,,,,,,,,,,122242.0,168492.0,203879.0,179915.0,1
2024-11-19 23:09:33.150000+00:00,,,,,,,,,,122242.0,168492.0,203879.0,179915.0,1
2024-11-19 23:09:33.160000+00:00,,,,,,,,,,122242.0,168492.0,203879.0,179915.0,1
2024-11-19 23:09:33.135000+00:00,,,,,,,,,,122242.0,168492.0,203879.0,179915.0,1
2024-11-19 23:09:33.144000+00:00,-0.50608206,9.590434,-1.668994,,,,,,,,,,,1
2024-11-19 23:09:33.140000+00:00,,,,,,,,,,122242.0,168492.0,203879.0,179915.0,1
2024-11-19 23:09:33.141000+00:00,,,,0.0,-0.04153884,-0.009773844,-20157.0,-2654.0,-3375.0,,,,,1
2024-11-19 23:09:33.155000+00:00,-0.4953143,9.580863,-1.660619,,,,,,,122242.0,168492.0,203879.0,179915.0,1
2024-11-19 23:09:33.133000+00:00,-0.526421,9.620344,-1.6905292,,,,,,,,,,,1
2024-11-19 23:09:33.131000+00:00,,,,,,,,,,122242.0,168492.0,203879.0,179915.0,1
2024-11-19 23:09:33.222000+00:00,-0.5036892,9.611969,-1.6869401,,,,,,,,,,,1
2024-11-19 23:09:33.213000+00:00,,,,,,,,,,122096.0,168354.0,203708.0,179779.0,1
2024-11-19 23:09:33.228000+00:00,,,,,,,,,,122096.0,168354.0,203708.0,179779.0,1
2024-11-19 23:09:33.203000+00:00,,,,,,,,,,122150.0,168413.0,203801.0,179818.0,1
2024-11-19 23:09:33.201000+00:00,-0.48574302,9.582059,-1.7264217,,,,,,,,,,,1
2024-11-19 23:09:33.223000+00:00,,,,-0.012217305,-0.04153884,-0.012217305,-20179.0,-2536.0,-3326.0,122096.0,168354.0,203708.0,179779.0,1
2024-11-19 23:09:33.218000+00:00,,,,,,,,,,122096.0,168354.0,203708.0,179779.0,1
2024-11-19 23:09:33.208000+00:00,,,,,,,,,,122096.0,168354.0,203708.0,179779.0,1
2024-11-19 23:09:33.211000+00:00,-0.49052867,9.613166,-1.7312073,,,,,,,,,,,1
2024-11-19 23:09:33.248000+00:00,,,,,,,,,,122195.0,168397.0,203822.0,179795.0,1
2024-11-19 23:09:33.244000+00:00,-0.51804614,9.542577,-1.6151553,,,,,,,,,,,1
2024-11-19 23:09:33.243000+00:00,,,,,,,,,,122096.0,168354.0,203708.0,179779.0,1
2024-11-19 23:09:33.258000+00:00,,,,,,,,,,122195.0,168397.0,203822.0,179795.0,1
2024-11-19 23:09:33.255000+00:00,-0.52163535,9.510274,-1.6067805,,,,,,,,,,,1
2024-11-19 23:09:33.238000+00:00,,,,,,,,,,122096.0,168354.0,203708.0,179779.0,1
2024-11-19 23:09:33.263000+00:00,,,,,,,,,,122195.0,168397.0,203822.0,179795.0,1
2024-11-19 23:09:33.253000+00:00,,,,,,,,,,122195.0,168397.0,203822.0,179795.0,1
2024-11-19 23:09:33.264000+00:00,,,,0.010995574,-0.045204025,-0.02443461,-20141.0,-2533.0,-3278.0,,,,,1
2024-11-19 23:09:33.234000+00:00,-0.5048856,9.601201,-1.6498513,,,,,,,122096.0,168354.0,203708.0,179779.0,1
2024-11-19 23:09:33.289000+00:00,,,,,,,,,,122188.0,168379.0,203818.0,179799.0,1
2024-11-19 23:09:33.279000+00:00,,,,,,,,,,122195.0,168397.0,203822.0,179795.0,1
2024-11-19 23:09:33.277000+00:00,-0.5048856,9.584452,-1.6965113,,,,,,,,,,,1
2024-11-19 23:09:33.284000+00:00,,,,,,,,,,122188.0,168379.0,203818.0,179799.0,1
2024-11-19 23:09:33.294000+00:00,,,,,,,,,,122188.0,168379.0,203818.0,179799.0,1
2024-11-19 23:09:33.269000+00:00,,,,,,,,,,122195.0,168397.0,203822.0,179795.0,1
2024-11-19 23:09:33.267000+00:00,-0.52522457,9.530614,-1.6366907,,,,,,,,,,,1
2024-11-19 23:09:33.288000+00:00,-0.52522457,9.615559,-1.7587247,,,,,,,,,,,1
2024-11-19 23:09:33.299000+00:00,-0.5300102,9.644273,-1.8149561,,,,,,,122188.0,168379.0,203818.0,179799.0,1
2024-11-19 23:09:33.274000+00:00,,,,,,,,,,122195.0,168397.0,203822.0,179795.0,1
2024-11-19 23:09:33.364000+00:00,,,,,,,,,,122021.0,168320.0,203651.0,179726.0,1
2024-11-19 23:09:33.346000+00:00,,,,-0.045204025,-0.037873644,-0.002443461,-20159.0,-2517.0,-3347.0,,,,,1
2024-11-19 23:09:33.344000+00:00,,,,,,,,,,122010.0,168321.0,203650.0,179730.0,1
2024-11-19 23:09:33.349000+00:00,,,,,,,,,,122010.0,168321.0,203650.0,179730.0,1
2024-11-19 23:09:33.366000+00:00,-0.45702913,9.521042,-1.6594226,,,,,,,,,,,1
2024-11-19 23:09:33.343000+00:00,-0.46420762,9.529416,-1.6354944,,,,,,,,,,,1
2024-11-19 23:09:33.359000+00:00,,,,,,,,,,122010.0,168321.0,203650.0,179730.0,1
2024-11-19 23:09:33.354000+00:00,-0.47497532,9.530614,-1.6522442,,,,,,,122010.0,168321.0,203650.0,179730.0,1
2024-11-19 23:09:33.340000+00:00,,,,,,,,,,122010.0,168321.0,203650.0,179730.0,1
2024-11-19 23:09:33.369000+00:00,,,,,,,,,,122021.0,168320.0,203651.0,179726.0,1
2024-11-19 23:09:33.414000+00:00,,,,,,,,,,122120.0,168315.0,203737.0,179704.0,1
2024-11-19 23:09:33.399000+00:00,-0.50727844,9.661022,-1.747957,0.0061086523,-0.039095376,-0.004886922,-20176.0,-2534.0,-3354.0,122021.0,168320.0,203651.0,179726.0,1
2024-11-19 23:09:33.404000+00:00,,,,,,,,,,122120.0,168315.0,203737.0,179704.0,1
2024-11-19 23:09:33.410000+00:00,-0.5240282,9.633505,-1.7048862,,,,,,,,,,,1
2024-11-19 23:09:33.419000+00:00,,,,,,,,,,122120.0,168315.0,203737.0,179704.0,1
2024-11-19 23:09:33.424000+00:00,,,,,,,,,,122120.0,168315.0,203737.0,179704.0,1
2024-11-19 23:09:33.409000+00:00,,,,,,,,,,122120.0,168315.0,203737.0,179704.0,1
2024-11-19 23:09:33.398000+00:00,,,,,,,,,,122021.0,168320.0,203651.0,179726.0,1
2024-11-19 23:09:33.421000+00:00,-0.526421,9.643076,-1.6486549,,,,,,,,,,,1
2024-11-19 23:09:33.444000+00:00,,,,,,,,,,122007.0,168253.0,203637.0,179673.0,1
2024-11-19 23:09:33.439000+00:00,,,,,,,,,,122120.0,168315.0,203737.0,179704.0,1
2024-11-19 23:09:33.430000+00:00,,,,,,,,,,122120.0,168315.0,203737.0,179704.0,1
2024-11-19 23:09:33.440000+00:00,,,,-0.045204025,-0.036651913,-0.018325957,-20168.0,-2549.0,-3353.0,,,,,1
2024-11-19 23:09:33.432000+00:00,-0.52522457,9.582059,-1.6031913,,,,,,,,,,,1
2024-11-19 23:09:33.449000+00:00,,,,,,,,,,122007.0,168253.0,203637.0,179673.0,1
2024-11-19 23:09:33.454000+00:00,-0.5359923,9.562917,-1.5756738,,,,,,,122007.0,168253.0,203637.0,179673.0,1
2024-11-19 23:09:33.434000+00:00,,,,,,,,,,122120.0,168315.0,203737.0,179704.0,1
2024-11-19 23:09:33.459000+00:00,,,,,,,,,,122007.0,168253.0,203637.0,179673.0,1
2024-11-19 23:09:33.443000+00:00,-0.53958154,9.538988,-1.5744773,,,,,,,,,,,1
2024-11-19 23:09:33.520000+00:00,-0.5838488,9.674183,-1.8161525,,,,,,,121879.0,168208.0,203523.0,179631.0,1
2024-11-19 23:09:33.525000+00:00,,,,,,,,,,121975.0,168249.0,203574.0,179642.0,1
2024-11-19 23:09:33.530000+00:00,,,,,,,,,,121975.0,168249.0,203574.0,179642.0,1
2024-11-19 23:09:33.499000+00:00,-0.4725825,9.577272,-1.8053848,,,,,,,,,,,1
2024-11-19 23:09:33.515000+00:00,,,,,,,,,,121879.0,168208.0,203523.0,179631.0,1
2024-11-19 23:09:33.500000+00:00,,,,,,,,,,121879.0,168208.0,203523.0,179631.0,1
2024-11-19 23:09:33.509000+00:00,-0.48693943,9.608379,-1.8400807,,,,,,,,,,,1
2024-11-19 23:09:33.505000+00:00,,,,,,,,,,121879.0,168208.0,203523.0,179631.0,1
2024-11-19 23:09:33.510000+00:00,,,,,,,,,,121879.0,168208.0,203523.0,179631.0,1
2024-11-19 23:09:33.522000+00:00,,,,-0.013439035,-0.039095376,0.004886922,-20211.0,-2549.0,-3319.0,,,,,1
2024-11-19 23:09:33.564000+00:00,-0.61256266,9.5246315,-1.6295123,,,,,,,,,,,1
2024-11-19 23:09:33.540000+00:00,,,,,,,,,,121975.0,168249.0,203574.0,179642.0,1
2024-11-19 23:09:33.535000+00:00,,,,,,,,,,121975.0,168249.0,203574.0,179642.0,1
2024-11-19 23:09:33.542000+00:00,-0.23808588,9.68495,-1.7766709,,,,,,,,,,,1
2024-11-19 23:09:33.553000+00:00,-0.43908298,9.68495,-1.7168504,,,,,,,,,,,1
2024-11-19 23:09:33.560000+00:00,,,,,,,,,,121975.0,168249.0,203574.0,179642.0,1
2024-11-19 23:09:33.563000+00:00,,,,-0.08063421,-0.032986723,-0.0012217305,-20134.0,-2504.0,-3377.0,,,,,1
2024-11-19 23:09:33.550000+00:00,,,,,,,,,,121975.0,168249.0,203574.0,179642.0,1
2024-11-19 23:09:33.545000+00:00,,,,,,,,,,121975.0,168249.0,203574.0,179642.0,1
2024-11-19 23:09:33.555000+00:00,,,,,,,,,,121975.0,168249.0,203574.0,179642.0,1
2024-11-19 23:09:33.532000+00:00,-0.6532406,9.538988,-1.802992,,,,,,,,,,,1
2024-11-19 23:09:33.597000+00:00,-0.63409805,9.396615,-1.5445671,,,,,,,,,,,1
2024-11-19 23:09:33.596000+00:00,,,,,,,,,,122016.0,168247.0,203643.0,179653.0,1
2024-11-19 23:09:33.575000+00:00,-0.46540403,9.607183,-1.5457635,,,,,,,,,,,1
2024-11-19 23:09:33.567000+00:00,,,,,,,,,,122016.0,168247.0,203643.0,179653.0,1
2024-11-19 23:09:33.581000+00:00,,,,,,,,,,122016.0,168247.0,203643.0,179653.0,1
2024-11-19 23:09:33.571000+00:00,,,,,,,,,,122016.0,168247.0,203643.0,179653.0,1
2024-11-19 23:09:33.601000+00:00,,,,,,,,,,122016.0,168247.0,203643.0,179653.0,1
2024-11-19 23:09:33.586000+00:00,-0.58265233,9.577272,-1.5505491,,,,,,,122016.0,168247.0,203643.0,179653.0,1
2024-11-19 23:09:33.591000+00:00,,,,,,,,,,122016.0,168247.0,203643.0,179653.0,1
2024-11-19 23:09:33.577000+00:00,,,,,,,,,,122016.0,168247.0,203643.0,179653.0,1
2024-11-19 23:09:33.666000+00:00,,,,,,,,,,121892.0,168236.0,203513.0,179658.0,1
2024-11-19 23:09:33.642000+00:00,-0.5036892,9.552149,-1.6486549,,,,,,,121892.0,168236.0,203513.0,179658.0,1
2024-11-19 23:09:33.661000+00:00,,,,,,,,,,121892.0,168236.0,203513.0,179658.0,1
2024-11-19 23:09:33.652000+00:00,-0.5647062,9.573684,-1.6833508,,,,,,,,,,,1
2024-11-19 23:09:33.671000+00:00,,,,,,,,,,121892.0,168236.0,203513.0,179658.0,1
2024-11-19 23:09:33.646000+00:00,,,,0.004886922,-0.032986723,0.0,-20183.0,-2474.0,-3352.0,121892.0,168236.0,203513.0,179658.0,1
2024-11-19 23:09:33.656000+00:00,,,,,,,,,,121892.0,168236.0,203513.0,179658.0,1
2024-11-19 23:09:33.651000+00:00,,,,,,,,,,121892.0,168236.0,203513.0,179658.0,1
2024-11-19 23:09:33.663000+00:00,-0.3924229,9.676576,-1.6917257,,,,,,,,,,,1
2024-11-19 23:09:33.706000+00:00,,,,,,,,,,121895.0,168244.0,203529.0,179657.0,1
2024-11-19 23:09:33.701000+00:00,-0.4809574,9.5964155,-1.7084755,0.0036651916,-0.040317103,-0.017104227,-20206.0,-2486.0,-3302.0,121895.0,168244.0,203529.0,179657.0,1
2024-11-19 23:09:33.716000+00:00,,,,,,,,,,121895.0,168244.0,203529.0,179657.0,1
2024-11-19 23:09:33.721000+00:00,,,,,,,,,,121895.0,168244.0,203529.0,179657.0,1
2024-11-19 23:09:33.712000+00:00,-0.49770713,9.629915,-1.7001005,,,,,,,,,,,1
2024-11-19 23:09:33.723000+00:00,-0.4821538,9.634702,-1.6833508,,,,,,,,,,,1
2024-11-19 23:09:33.699000+00:00,-0.4809574,9.5964155,-1.7060826,,,,,,,,,,,1
2024-11-19 23:09:33.711000+00:00,,,,,,,,,,121895.0,168244.0,203529.0,179657.0,1
2024-11-19 23:09:33.726000+00:00,,,,,,,,,,122029.0,168302.0,203671.0,179719.0,1
2024-11-19 23:09:33.742000+00:00,,,,-0.036651913,-0.037873644,-0.002443461,-20143.0,-2478.0,-3399.0,,,,,1
2024-11-19 23:09:33.745000+00:00,-0.47497532,9.602398,-1.6115662,,,,,,,,,,,1
2024-11-19 23:09:33.734000+00:00,-0.49172506,9.613166,-1.6450658,,,,,,,,,,,1
2024-11-19 23:09:33.761000+00:00,,,,,,,,,,122029.0,168302.0,203671.0,179719.0,1
2024-11-19 23:09:33.751000+00:00,,,,,,,,,,122029.0,168302.0,203671.0,179719.0,1
2024-11-19 23:09:33.756000+00:00,-0.46899328,9.59522,-1.5924236,,,,,,,122029.0,168302.0,203671.0,179719.0,1
2024-11-19 23:09:33.741000+00:00,,,,,,,,,,122029.0,168302.0,203671.0,179719.0,1
2024-11-19 23:09:33.746000+00:00,,,,,,,,,,122029.0,168302.0,203671.0,179719.0,1
2024-11-19 23:09:33.736000+00:00,,,,,,,,,,122029.0,168302.0,203671.0,179719.0,1
2024-11-19 23:09:33.732000+00:00,,,,,,,,,,122029.0,168302.0,203671.0,179719.0,1
2024-11-19 23:09:33.776000+00:00,,,,,,,,,,121995.0,168303.0,203653.0,179724.0,1
2024-11-19 23:09:33.771000+00:00,,,,,,,,,,121995.0,168303.0,203653.0,179724.0,1
2024-11-19 23:09:33.769000+00:00,-0.4809574,9.589237,-1.581656,,,,,,,,,,,1
2024-11-19 23:09:33.780000+00:00,-0.46779686,9.59522,-1.5744773,,,,,,,,,,,1
2024-11-19 23:09:33.783000+00:00,,,,-0.042760566,-0.034208454,0.002443461,-20222.0,-2516.0,-3374.0,,,,,1
2024-11-19 23:09:33.796000+00:00,,,,,,,,,,121995.0,168303.0,203653.0,179724.0,1
2024-11-19 23:09:33.786000+00:00,,,,,,,,,,121995.0,168303.0,203653.0,179724.0,1
2024-11-19 23:09:33.791000+00:00,-0.6675976,9.454043,-1.6175482,,,,,,,121995.0,168303.0,203653.0,179724.0,1
2024-11-19 23:09:33.767000+00:00,,,,,,,,,,121995.0,168303.0,203653.0,179724.0,1
2024-11-19 23:09:33.781000+00:00,,,,,,,,,,121995.0,168303.0,203653.0,179724.0,1
2024-11-19 23:09:33.821000+00:00,,,,,,,,,,121830.0,168258.0,203459.0,179674.0,1
2024-11-19 23:09:33.811000+00:00,,,,,,,,,,121830.0,168258.0,203459.0,179674.0,1
2024-11-19 23:09:33.815000+00:00,-0.36849472,9.7088785,-1.6450658,,,,,,,,,,,1
2024-11-19 23:09:33.831000+00:00,,,,,,,,,,121830.0,168258.0,203459.0,179674.0,1
2024-11-19 23:09:33.826000+00:00,-0.5994021,9.546166,-1.6319051,,,,,,,121830.0,168258.0,203459.0,179674.0,1
2024-11-19 23:09:33.804000+00:00,-0.3661019,9.686147,-1.6007985,,,,,,,,,,,1
2024-11-19 23:09:33.802000+00:00,,,,,,,,,,121830.0,168258.0,203459.0,179674.0,1
2024-11-19 23:09:33.816000+00:00,,,,,,,,,,121830.0,168258.0,203459.0,179674.0,1
2024-11-19 23:09:33.806000+00:00,,,,,,,,,,121830.0,168258.0,203459.0,179674.0,1
2024-11-19 23:09:33.824000+00:00,,,,-0.007330383,-0.042760566,0.0012217305,-20179.0,-2491.0,-3325.0,,,,,1
2024-11-19 23:09:33.903000+00:00,-0.45822555,9.574881,-1.619941,,,,,,,121859.0,168172.0,203462.0,179542.0,1
2024-11-19 23:09:33.893000+00:00,,,,,,,,,,121859.0,168172.0,203462.0,179542.0,1
2024-11-19 23:09:33.883000+00:00,,,,,,,,,,121859.0,168172.0,203462.0,179542.0,1
2024-11-19 23:09:33.873000+00:00,,,,,,,,,,121878.0,168237.0,203478.0,179627.0,1
2024-11-19 23:09:33.898000+00:00,,,,,,,,,,121859.0,168172.0,203462.0,179542.0,1
2024-11-19 23:09:33.881000+00:00,-0.4630112,9.620344,-1.6079769,,,,,,,,,,,1
2024-11-19 23:09:33.878000+00:00,,,,,,,,,,121878.0,168237.0,203478.0,179627.0,1
2024-11-19 23:09:33.892000+00:00,-0.4630112,9.5760765,-1.6163518,,,,,,,,,,,1
2024-11-19 23:09:33.888000+00:00,,,,,,,,,,121859.0,168172.0,203462.0,179542.0,1
2024-11-19 23:09:33.871000+00:00,-0.49052867,9.579666,-1.6163518,,,,,,,,,,,1
2024-11-19 23:09:33.946000+00:00,,,,,,,,,,,,,,1
2024-11-19 23:09:33.972000+00:00,,,,,,,,,,121765.0,168078.0,203393.0,179459.0,1
2024-11-19 23:09:33.987000+00:00,,,,,,,,,,121765.0,168078.0,203393.0,179459.0,1
2024-11-19 23:09:33.978000+00:00,-0.5084749,9.589237,-1.5565312,,,,,,,,,,,1
2024-11-19 23:09:33.967000+00:00,-0.5120641,9.59163,-1.5864415,-0.008552114,-0.039095376,-0.012217305,-20228.0,-2479.0,-3365.0,121765.0,168078.0,203393.0,179459.0,1
2024-11-19 23:09:33.944000+00:00,,,,,,,,,,121781.0,168112.0,203406.0,179480.0,1
2024-11-19 23:09:33.982000+00:00,,,,,,,,,,121765.0,168078.0,203393.0,179459.0,1
2024-11-19 23:09:33.977000+00:00,,,,,,,,,,121765.0,168078.0,203393.0,179459.0,1
2024-11-19 23:09:33.989000+00:00,-0.5012964,9.579666,-1.5493528,,,,,,,,,,,1
2024-11-19 23:09:33.998000+00:00,,,,,,,,,,121765.0,168078.0,203393.0,179459.0,1
2024-11-19 23:09:33.999000+00:00,,,,,,,,,,121765.0,168078.0,203393.0,179459.0,1
2024-11-19 23:09:34.004000+00:00,,,,,,,,,,121800.0,168072.0,203421.0,179441.0,1
2024-11-19 23:09:34.022000+00:00,-0.48693943,9.601201,-1.6007985,,,,,,,,,,,1
2024-11-19 23:09:34.008000+00:00,,,,-0.012217305,-0.036651913,-0.004886922,-20144.0,-2464.0,-3421.0,,,,,1
2024-11-19 23:09:34.033000+00:00,-0.46660045,9.632308,-1.6115662,,,,,,,,,,,1
2024-11-19 23:09:34.029000+00:00,,,,,,,,,,121800.0,168072.0,203421.0,179441.0,1
2024-11-19 23:09:34.019000+00:00,,,,,,,,,,121800.0,168072.0,203421.0,179441.0,1
2024-11-19 23:09:34+00:00,-0.4941179,9.5760765,-1.5517455,,,,,,,,,,,1
2024-11-19 23:09:34.009000+00:00,,,,,,,,,,121800.0,168072.0,203421.0,179441.0,1
2024-11-19 23:09:34.014000+00:00,,,,,,,,,,121800.0,168072.0,203421.0,179441.0,1
2024-11-19 23:09:34.011000+00:00,-0.48813584,9.584452,-1.5828524,,,,,,,,,,,1
2024-11-19 23:09:34.024000+00:00,,,,,,,,,,121800.0,168072.0,203421.0,179441.0,1
2024-11-19 23:09:34.036000+00:00,,,,,,,,,,121800.0,168072.0,203421.0,179441.0,1
2024-11-19 23:09:34.050000+00:00,,,,,,,,,,121837.0,168076.0,203470.0,179464.0,1
2024-11-19 23:09:34.049000+00:00,,,,0.012217305,-0.036651913,-0.014660766,-20105.0,-2471.0,-3380.0,,,,,1
2024-11-19 23:09:34.065000+00:00,,,,,,,,,,121837.0,168076.0,203470.0,179464.0,1
2024-11-19 23:09:34.066000+00:00,-0.47497532,9.614362,-1.5828524,,,,,,,,,,,1
2024-11-19 23:09:34.045000+00:00,,,,,,,,,,121837.0,168076.0,203470.0,179464.0,1
2024-11-19 23:09:34.055000+00:00,-0.47138608,9.645469,-1.6067805,,,,,,,121837.0,168076.0,203470.0,179464.0,1
2024-11-19 23:09:34.040000+00:00,,,,,,,,,,121800.0,168072.0,203421.0,179441.0,1
2024-11-19 23:09:34.060000+00:00,,,,,,,,,,121837.0,168076.0,203470.0,179464.0,1
2024-11-19 23:09:34.044000+00:00,-0.48693943,9.616755,-1.634298,,,,,,,,,,,1
2024-11-19 23:09:34.085000+00:00,,,,,,,,,,121836.0,168072.0,203457.0,179467.0,1
2024-11-19 23:09:34.088000+00:00,-0.45583272,9.57847,-1.5385851,,,,,,,,,,,1
2024-11-19 23:09:34.080000+00:00,,,,,,,,,,121837.0,168076.0,203470.0,179464.0,1
2024-11-19 23:09:34.077000+00:00,-0.45583272,9.589237,-1.5553348,,,,,,,,,,,1
2024-11-19 23:09:34.095000+00:00,,,,,,,,,,121836.0,168072.0,203457.0,179467.0,1
2024-11-19 23:09:34.071000+00:00,,,,,,,,,,121837.0,168076.0,203470.0,179464.0,1
2024-11-19 23:09:34.099000+00:00,-0.46899328,9.572488,-1.5601205,,,,,,,,,,,1
2024-11-19 23:09:34.075000+00:00,,,,,,,,,,121837.0,168076.0,203470.0,179464.0,1
2024-11-19 23:09:34.090000+00:00,,,,-0.007330383,-0.03543018,-0.014660766,-20182.0,-2482.0,-3327.0,121836.0,168072.0,203457.0,179467.0,1
2024-11-19 23:09:34.100000+00:00,,,,,,,,,,121836.0,168072.0,203457.0,179467.0,1
2024-11-19 23:09:34.110000+00:00,-0.4821538,9.607183,-1.5804595,,,,,,,121836.0,168072.0,203457.0,179467.0,1
2024-11-19 23:09:34.121000+00:00,-0.48574302,9.611969,-1.5888344,,,,,,,,,,,1
2024-11-19 23:09:34.135000+00:00,,,,,,,,,,121762.0,168049.0,203357.0,179438.0,1
2024-11-19 23:09:34.106000+00:00,,,,,,,,,,121836.0,168072.0,203457.0,179467.0,1
2024-11-19 23:09:34.120000+00:00,,,,,,,,,,121836.0,168072.0,203457.0,179467.0,1
2024-11-19 23:09:34.125000+00:00,,,,,,,,,,121762.0,168049.0,203357.0,179438.0,1
2024-11-19 23:09:34.132000+00:00,-0.5012964,9.613166,-1.6235303,,,,,,,,,,,1
2024-11-19 23:09:34.130000+00:00,,,,,,,,,,121762.0,168049.0,203357.0,179438.0,1
2024-11-19 23:09:34.131000+00:00,,,,0.009773844,-0.032986723,-0.017104227,-20184.0,-2461.0,-3393.0,,,,,1
2024-11-19 23:09:34.115000+00:00,,,,,,,,,,121836.0,168072.0,203457.0,179467.0,1
2024-11-19 23:09:34.181000+00:00,,,,,,,,,,121742.0,168053.0,203364.0,179439.0,1
2024-11-19 23:09:34.177000+00:00,-0.47617176,9.609576,-1.5960128,,,,,,,121742.0,168053.0,203364.0,179439.0,1
2024-11-19 23:09:34.187000+00:00,-0.46540403,9.616755,-1.5684953,,,,,,,,,,,1
2024-11-19 23:09:34.206000+00:00,,,,,,,,,,121869.0,168073.0,203486.0,179456.0,1
2024-11-19 23:09:34.196000+00:00,,,,,,,,,,121742.0,168053.0,203364.0,179439.0,1
2024-11-19 23:09:34.186000+00:00,,,,,,,,,,121742.0,168053.0,203364.0,179439.0,1
2024-11-19 23:09:34.201000+00:00,,,,,,,,,,121869.0,168073.0,203486.0,179456.0,1
2024-11-19 23:09:34.209000+00:00,-0.47138608,9.59522,-1.5493528,,,,,,,,,,,1
2024-11-19 23:09:34.198000+00:00,-0.4606184,9.600005,-1.5565312,,,,,,,,,,,1
2024-11-19 23:09:34.191000+00:00,,,,,,,,,,121742.0,168053.0,203364.0,179439.0,1
2024-11-19 23:09:34.216000+00:00,,,,,,,,,,121869.0,168073.0,203486.0,179456.0,1
2024-11-19 23:09:34.236000+00:00,,,,,,,,,,121869.0,168073.0,203486.0,179456.0,1
2024-11-19 23:09:34.213000+00:00,,,,-0.02687807,-0.037873644,-0.007330383,-20170.0,-2522.0,-3342.0,,,,,1
2024-11-19 23:09:34.212000+00:00,,,,,,,,,,121869.0,168073.0,203486.0,179456.0,1
2024-11-19 23:09:34.220000+00:00,-0.4737789,9.623933,-1.5481564,,,,,,,,,,,1
2024-11-19 23:09:34.226000+00:00,,,,,,,,,,121869.0,168073.0,203486.0,179456.0,1
2024-11-19 23:09:34.221000+00:00,,,,,,,,,,121869.0,168073.0,203486.0,179456.0,1
2024-11-19 23:09:34.241000+00:00,,,,,,,,,,121887.0,168079.0,203498.0,179464.0,1
2024-11-19 23:09:34.243000+00:00,-0.49052867,9.627522,-1.5672989,,,,,,,,,,,1
2024-11-19 23:09:34.231000+00:00,-0.4821538,9.627522,-1.5948164,,,,,,,121869.0,168073.0,203486.0,179456.0,1
2024-11-19 23:09:34.254000+00:00,-0.5120641,9.586844,-1.552942,-0.030543262,-0.03543018,-0.009773844,-20217.0,-2435.0,-3365.0,,,,,1
2024-11-19 23:09:34.266000+00:00,,,,,,,,,,121887.0,168079.0,203498.0,179464.0,1
2024-11-19 23:09:34.261000+00:00,,,,,,,,,,121887.0,168079.0,203498.0,179464.0,1
2024-11-19 23:09:34.265000+00:00,-0.58145595,9.54497,-1.5493528,,,,,,,,,,,1
2024-11-19 23:09:34.247000+00:00,,,,,,,,,,121887.0,168079.0,203498.0,179464.0,1
2024-11-19 23:09:34.271000+00:00,,,,,,,,,,121887.0,168079.0,203498.0,179464.0,1
2024-11-19 23:09:34.251000+00:00,,,,,,,,,,121887.0,168079.0,203498.0,179464.0,1
2024-11-19 23:09:34.256000+00:00,,,,,,,,,,121887.0,168079.0,203498.0,179464.0,1
2024-11-19 23:09:34.276000+00:00,-0.4606184,9.617951,-1.5158533,,,,,,,121887.0,168079.0,203498.0,179464.0,1
2024-11-19 23:09:34.321000+00:00,-0.45583272,9.617951,-1.6079769,,,,,,,,,,,1
2024-11-19 23:09:34.304000+00:00,,,,,,,,,,121723.0,168029.0,203344.0,179435.0,1
2024-11-19 23:09:34.314000+00:00,,,,,,,,,,121723.0,168029.0,203344.0,179435.0,1
2024-11-19 23:09:34.299000+00:00,-0.4965107,9.588041,-1.5433707,0.007330383,-0.036651913,-0.03543018,-20134.0,-2510.0,-3376.0,121723.0,168029.0,203344.0,179435.0,1
2024-11-19 23:09:34.309000+00:00,,,,,,,,,,121723.0,168029.0,203344.0,179435.0,1
2024-11-19 23:09:34.324000+00:00,,,,,,,,,,121772.0,168049.0,203427.0,179442.0,1
2024-11-19 23:09:34.319000+00:00,,,,,,,,,,121723.0,168029.0,203344.0,179435.0,1
2024-11-19 23:09:34.297000+00:00,,,,,,,,,,121723.0,168029.0,203344.0,179435.0,1
2024-11-19 23:09:34.310000+00:00,-0.45822555,9.611969,-1.5960128,,,,,,,,,,,1
2024-11-19 23:09:34.334000+00:00,,,,,,,,,,121772.0,168049.0,203427.0,179442.0,1
2024-11-19 23:09:34.354000+00:00,-0.43429735,9.623933,-1.5948164,,,,,,,121772.0,168049.0,203427.0,179442.0,1
2024-11-19 23:09:34.344000+00:00,,,,,,,,,,121772.0,168049.0,203427.0,179442.0,1
2024-11-19 23:09:34.332000+00:00,-0.43788657,9.610773,-1.6151553,,,,,,,,,,,1
2024-11-19 23:09:34.340000+00:00,,,,0.007330383,-0.042760566,-0.004886922,-20183.0,-2477.0,-3340.0,,,,,1
2024-11-19 23:09:34.339000+00:00,,,,,,,,,,121772.0,168049.0,203427.0,179442.0,1
2024-11-19 23:09:34.359000+00:00,,,,,,,,,,121772.0,168049.0,203427.0,179442.0,1
2024-11-19 23:09:34.349000+00:00,,,,,,,,,,121772.0,168049.0,203427.0,179442.0,1
2024-11-19 23:09:34.330000+00:00,,,,,,,,,,121772.0,168049.0,203427.0,179442.0,1
2024-11-19 23:09:34.343000+00:00,-0.41395834,9.615559,-1.5912272,,,,,,,,,,,1
2024-11-19 23:09:34.394000+00:00,,,,,,,,,,121780.0,168035.0,203408.0,179442.0,1
2024-11-19 23:09:34.378000+00:00,-0.5001,9.614362,-1.5517455,,,,,,,,,,,1
2024-11-19 23:09:34.369000+00:00,,,,,,,,,,121780.0,168035.0,203408.0,179442.0,1
2024-11-19 23:09:34.379000+00:00,,,,,,,,,,121780.0,168035.0,203408.0,179442.0,1
2024-11-19 23:09:34.365000+00:00,,,,,,,,,,121780.0,168035.0,203408.0,179442.0,1
2024-11-19 23:09:34.374000+00:00,,,,,,,,,,121780.0,168035.0,203408.0,179442.0,1
2024-11-19 23:09:34.384000+00:00,,,,,,,,,,121780.0,168035.0,203408.0,179442.0,1
2024-11-19 23:09:34.367000+00:00,-0.44865426,9.620344,-1.587638,,,,,,,,,,,1
2024-11-19 23:09:34.381000+00:00,,,,-0.012217305,-0.03543018,-0.019547688,-20189.0,-2445.0,-3325.0,,,,,1
2024-11-19 23:09:34.389000+00:00,-0.5024928,9.63829,-1.5397815,,,,,,,121780.0,168035.0,203408.0,179442.0,1
2024-11-19 23:09:34.402000+00:00,-0.5335995,9.614362,-1.5302103,,,,,,,,,,,1
2024-11-19 23:09:34.400000+00:00,,,,,,,,,,121776.0,168046.0,203437.0,179468.0,1
2024-11-19 23:09:34.413000+00:00,-0.53479594,9.623933,-1.5026927,,,,,,,,,,,1
2024-11-19 23:09:34.414000+00:00,,,,,,,,,,121776.0,168046.0,203437.0,179468.0,1
2024-11-19 23:09:34.424000+00:00,-0.52522457,9.602398,-1.5014963,,,,,,,121776.0,168046.0,203437.0,179468.0,1
2024-11-19 23:09:34.419000+00:00,,,,,,,,,,121776.0,168046.0,203437.0,179468.0,1
2024-11-19 23:09:34.404000+00:00,,,,,,,,,,121776.0,168046.0,203437.0,179468.0,1
2024-11-19 23:09:34.409000+00:00,,,,,,,,,,121776.0,168046.0,203437.0,179468.0,1
2024-11-19 23:09:34.422000+00:00,,,,-0.032986723,-0.03543018,-0.017104227,-20119.0,-2508.0,-3396.0,,,,,1
2024-11-19 23:09:34.429000+00:00,,,,,,,,,,121776.0,168046.0,203437.0,179468.0,1
2024-11-19 23:09:34.501000+00:00,-0.48574302,9.6682005,-1.660619,,,,,,,,,,,1
2024-11-19 23:09:34.497000+00:00,,,,,,,,,,121778.0,168062.0,203396.0,179481.0,1
2024-11-19 23:09:34.479000+00:00,-0.45942196,9.62513,-1.5661025,,,,,,,,,,,1
2024-11-19 23:09:34.469000+00:00,-0.4510471,9.598808,-1.5613168,,,,,,,,,,,1
2024-11-19 23:09:34.486000+00:00,,,,,,,,,,121778.0,168062.0,203396.0,179481.0,1
2024-11-19 23:09:34.481000+00:00,,,,,,,,,,121778.0,168062.0,203396.0,179481.0,1
2024-11-19 23:09:34.490000+00:00,-0.4821538,9.639486,-1.6211374,,,,,,,,,,,1
2024-11-19 23:09:34.471000+00:00,,,,,,,,,,121748.0,168038.0,203370.0,179474.0,1
2024-11-19 23:09:34.492000+00:00,,,,,,,,,,121778.0,168062.0,203396.0,179481.0,1
2024-11-19 23:09:34.476000+00:00,,,,,,,,,,121748.0,168038.0,203370.0,179474.0,1
2024-11-19 23:09:34.502000+00:00,,,,,,,,,,121778.0,168062.0,203396.0,179481.0,1
2024-11-19 23:09:34.512000+00:00,-0.4953143,9.627522,-1.6319051,,,,,,,,,,,1
2024-11-19 23:09:34.524000+00:00,,,,,,,,,,121754.0,168073.0,203386.0,179497.0,1
2024-11-19 23:09:34.534000+00:00,-0.47856456,9.623933,-1.5373887,,,,,,,121754.0,168073.0,203386.0,179497.0,1
2024-11-19 23:09:34.514000+00:00,,,,,,,,,,121778.0,168062.0,203396.0,179481.0,1
2024-11-19 23:09:34.519000+00:00,,,,,,,,,,121754.0,168073.0,203386.0,179497.0,1
2024-11-19 23:09:34.539000+00:00,,,,,,,,,,121754.0,168073.0,203386.0,179497.0,1
2024-11-19 23:09:34.529000+00:00,,,,,,,,,,121754.0,168073.0,203386.0,179497.0,1
2024-11-19 23:09:34.508000+00:00,,,,,,,,,,121778.0,168062.0,203396.0,179481.0,1
2024-11-19 23:09:34.507000+00:00,,,,0.010995574,-0.036651913,-0.014660766,-20198.0,-2448.0,-3418.0,,,,,1
2024-11-19 23:09:34.523000+00:00,-0.4965107,9.626327,-1.5828524,,,,,,,,,,,1
2024-11-19 23:09:34.559000+00:00,,,,,,,,,,121632.0,168040.0,203276.0,179448.0,1
2024-11-19 23:09:34.564000+00:00,,,,,,,,,,121632.0,168040.0,203276.0,179448.0,1
2024-11-19 23:09:34.574000+00:00,,,,,,,,,,121632.0,168040.0,203276.0,179448.0,1
2024-11-19 23:09:34.556000+00:00,-0.4522435,9.568898,-1.4991034,,,,,,,,,,,1
2024-11-19 23:09:34.545000+00:00,-0.46420762,9.579666,-1.4883357,-0.040317103,-0.039095376,-0.013439035,-20123.0,-2430.0,-3408.0,,,,,1
2024-11-19 23:09:34.549000+00:00,,,,,,,,,,121754.0,168073.0,203386.0,179497.0,1
2024-11-19 23:09:34.567000+00:00,-0.46420762,9.613166,-1.4943178,,,,,,,,,,,1
2024-11-19 23:09:34.554000+00:00,,,,,,,,,,121754.0,168073.0,203386.0,179497.0,1
2024-11-19 23:09:34.569000+00:00,,,,,,,,,,121632.0,168040.0,203276.0,179448.0,1
2024-11-19 23:09:34.600000+00:00,-0.51086766,9.653844,-1.5804595,-0.0036651916,-0.040317103,-0.007330383,-20187.0,-2466.0,-3394.0,121666.0,168007.0,203288.0,179410.0,1
2024-11-19 23:09:34.605000+00:00,,,,,,,,,,121666.0,168007.0,203288.0,179410.0,1
2024-11-19 23:09:34.622000+00:00,-0.50727844,9.584452,-1.5720845,,,,,,,,,,,1
2024-11-19 23:09:34.610000+00:00,,,,,,,,,,121666.0,168007.0,203288.0,179410.0,1
2024-11-19 23:09:34.620000+00:00,,,,,,,,,,121666.0,168007.0,203288.0,179410.0,1
2024-11-19 23:09:34.598000+00:00,-0.51086766,9.653844,-1.5804595,,,,,,,,,,,1
2024-11-19 23:09:34.615000+00:00,,,,,,,,,,121666.0,168007.0,203288.0,179410.0,1
2024-11-19 23:09:34.625000+00:00,,,,,,,,,,121666.0,168007.0,203288.0,179410.0,1
2024-11-19 23:09:34.611000+00:00,-0.51086766,9.6574335,-1.5768702,,,,,,,,,,,1
2024-11-19 23:09:34.631000+00:00,,,,,,,,,,121666.0,168007.0,203288.0,179410.0,1
2024-11-19 23:09:34.640000+00:00,,,,,,,,,,121618.0,167943.0,203244.0,179327.0,1
2024-11-19 23:09:34.645000+00:00,,,,,,,,,,121618.0,167943.0,203244.0,179327.0,1
2024-11-19 23:09:34.655000+00:00,-0.44386864,9.59522,-1.5182462,,,,,,,121618.0,167943.0,203244.0,179327.0,1
2024-11-19 23:09:34.642000+00:00,,,,-0.02565634,-0.04153884,0.002443461,-20207.0,-2508.0,-3372.0,,,,,1
2024-11-19 23:09:34.660000+00:00,,,,,,,,,,121618.0,167943.0,203244.0,179327.0,1
2024-11-19 23:09:34.650000+00:00,,,,,,,,,,121618.0,167943.0,203244.0,179327.0,1
2024-11-19 23:09:34.644000+00:00,-0.44386864,9.603595,-1.5517455,,,,,,,,,,,1
2024-11-19 23:09:34.633000+00:00,-0.46181482,9.62513,-1.5756738,,,,,,,,,,,1
2024-11-19 23:09:34.635000+00:00,,,,,,,,,,121666.0,168007.0,203288.0,179410.0,1
2024-11-19 23:09:34.702000+00:00,,,,,,,,,,121718.0,167904.0,203320.0,179318.0,1
2024-11-19 23:09:34.710000+00:00,-0.4821538,9.615559,-1.4955143,,,,,,,,,,,1
2024-11-19 23:09:34.712000+00:00,,,,,,,,,,121718.0,167904.0,203320.0,179318.0,1
2024-11-19 23:09:34.700000+00:00,-0.4630112,9.605987,-1.4763716,,,,,,,,,,,1
2024-11-19 23:09:34.721000+00:00,-0.5144569,9.649057,-1.5218353,,,,,,,,,,,1
2024-11-19 23:09:34.722000+00:00,,,,,,,,,,121759.0,167892.0,203390.0,179322.0,1
2024-11-19 23:09:34.725000+00:00,,,,0.0036651916,-0.040317103,-0.018325957,-20102.0,-2450.0,-3391.0,,,,,1
2024-11-19 23:09:34.707000+00:00,,,,,,,,,,121718.0,167904.0,203320.0,179318.0,1
2024-11-19 23:09:34.717000+00:00,,,,,,,,,,121718.0,167904.0,203320.0,179318.0,1
2024-11-19 23:09:34.727000+00:00,,,,,,,,,,121759.0,167892.0,203390.0,179322.0,1
2024-11-19 23:09:34.754000+00:00,-0.5144569,9.609576,-1.5242282,,,,,,,,,,,1
2024-11-19 23:09:34.752000+00:00,,,,,,,,,,121759.0,167892.0,203390.0,179322.0,1
2024-11-19 23:09:34.757000+00:00,,,,,,,,,,121759.0,167892.0,203390.0,179322.0,1
2024-11-19 23:09:34.747000+00:00,,,,,,,,,,121759.0,167892.0,203390.0,179322.0,1
2024-11-19 23:09:34.765000+00:00,-0.51086766,9.609576,-1.520639,,,,,,,,,,,1
2024-11-19 23:09:34.762000+00:00,,,,,,,,,,121620.0,167851.0,203233.0,179270.0,1
2024-11-19 23:09:34.743000+00:00,-0.5335995,9.603595,-1.5230317,,,,,,,,,,,1
2024-11-19 23:09:34.742000+00:00,,,,,,,,,,121759.0,167892.0,203390.0,179322.0,1
2024-11-19 23:09:34.737000+00:00,,,,,,,,,,121759.0,167892.0,203390.0,179322.0,1
2024-11-19 23:09:34.733000+00:00,-0.53479594,9.631111,-1.5385851,,,,,,,121759.0,167892.0,203390.0,179322.0,1
2024-11-19 23:09:34.824000+00:00,,,,,,,,,,121706.0,167871.0,203333.0,179301.0,1
2024-11-19 23:09:34.829000+00:00,,,,,,,,,,121706.0,167871.0,203333.0,179301.0,1
2024-11-19 23:09:34.807000+00:00,,,,0.013439035,-0.043982297,-0.008552114,-20200.0,-2467.0,-3402.0,,,,,1
2024-11-19 23:09:34.809000+00:00,-0.44506505,9.63829,-1.5864415,,,,,,,121706.0,167871.0,203333.0,179301.0,1
2024-11-19 23:09:34.831000+00:00,-0.4522435,9.652647,-1.5445671,,,,,,,,,,,1
2024-11-19 23:09:34.805000+00:00,,,,,,,,,,121706.0,167871.0,203333.0,179301.0,1
2024-11-19 23:09:34.820000+00:00,-0.45463634,9.623933,-1.5828524,,,,,,,,,,,1
2024-11-19 23:09:34.814000+00:00,,,,,,,,,,121706.0,167871.0,203333.0,179301.0,1
2024-11-19 23:09:34.819000+00:00,,,,,,,,,,121706.0,167871.0,203333.0,179301.0,1
2024-11-19 23:09:34.834000+00:00,,,,,,,,,,121706.0,167871.0,203333.0,179301.0,1
2024-11-19 23:09:34.946000+00:00,-0.5048856,9.62513,-1.5433707,,,,,,,,,,,1
2024-11-19 23:09:34.933000+00:00,,,,,,,,,,121742.0,167866.0,203330.0,179309.0,1
2024-11-19 23:09:34.943000+00:00,,,,0.0061086523,-0.037873644,-0.017104227,-20133.0,-2426.0,-3435.0,,,,,1
2024-11-19 23:09:34.935000+00:00,-0.4965107,9.645469,-1.5493528,,,,,,,,,,,1
2024-11-19 23:09:34.937000+00:00,,,,,,,,,,121742.0,167866.0,203330.0,179309.0,1
2024-11-19 23:09:34.947000+00:00,,,,,,,,,,121727.0,167823.0,203333.0,179270.0,1
2024-11-19 23:09:34.976000+00:00,,,,,,,,,,121727.0,167823.0,203333.0,179270.0,1
2024-11-19 23:09:34.971000+00:00,-0.47976097,9.603595,-1.5134604,,,,,,,121727.0,167823.0,203333.0,179270.0,1
2024-11-19 23:09:34.942000+00:00,,,,,,,,,,121742.0,167866.0,203330.0,179309.0,1
2024-11-19 23:09:34.995000+00:00,,,,,,,,,,121727.0,167823.0,203333.0,179270.0,1
2024-11-19 23:09:34.990000+00:00,-0.45583272,9.608379,-1.5014963,-0.008552114,-0.040317103,-0.009773844,-20247.0,-2400.0,-3425.0,121727.0,167823.0,203333.0,179270.0,1
2024-11-19 23:09:35.002000+00:00,-0.46540403,9.616755,-1.5098711,,,,,,,,,,,1
2024-11-19 23:09:35.026000+00:00,,,,,,,,,,121773.0,167841.0,203350.0,179297.0,1
2024-11-19 23:09:35+00:00,,,,,,,,,,121773.0,167841.0,203350.0,179297.0,1
2024-11-19 23:09:35.031000+00:00,,,,-0.0036651916,-0.036651913,-0.015882496,-20193.0,-2467.0,-3432.0,121773.0,167841.0,203350.0,179297.0,1
2024-11-19 23:09:35.015000+00:00,,,,,,,,,,121773.0,167841.0,203350.0,179297.0,1
2024-11-19 23:09:35.005000+00:00,,,,,,,,,,121773.0,167841.0,203350.0,179297.0,1
2024-11-19 23:09:35.010000+00:00,,,,,,,,,,121773.0,167841.0,203350.0,179297.0,1
2024-11-19 23:09:35.020000+00:00,,,,,,,,,,121773.0,167841.0,203350.0,179297.0,1
2024-11-19 23:09:35.013000+00:00,-0.45702913,9.644273,-1.5146568,,,,,,,,,,,1
2024-11-19 23:09:35.024000+00:00,-0.4845466,9.635898,-1.5242282,,,,,,,,,,,1
2024-11-19 23:09:35.036000+00:00,-0.47976097,9.656236,-1.4907286,,,,,,,,,,,1
2024-11-19 23:09:35.053000+00:00,,,,,,,,,,121770.0,167791.0,203368.0,179281.0,1
2024-11-19 23:09:35.046000+00:00,-0.5036892,9.59163,-1.4620148,,,,,,,,,,,1
2024-11-19 23:09:35.063000+00:00,,,,,,,,,,121770.0,167791.0,203368.0,179281.0,1
2024-11-19 23:09:35.068000+00:00,-0.49172506,9.613166,-1.4249259,,,,,,,121770.0,167791.0,203368.0,179281.0,1
2024-11-19 23:09:35.043000+00:00,,,,,,,,,,121770.0,167791.0,203368.0,179281.0,1
2024-11-19 23:09:35.058000+00:00,,,,,,,,,,121770.0,167791.0,203368.0,179281.0,1
2024-11-19 23:09:35.038000+00:00,,,,,,,,,,121770.0,167791.0,203368.0,179281.0,1
2024-11-19 23:09:35.048000+00:00,,,,,,,,,,121770.0,167791.0,203368.0,179281.0,1
2024-11-19 23:09:35.057000+00:00,-0.50727844,9.582059,-1.4297116,,,,,,,,,,,1
2024-11-19 23:09:35.090000+00:00,-0.4821538,9.607183,-1.4787645,,,,,,,,,,,1
2024-11-19 23:09:35.084000+00:00,,,,,,,,,,121723.0,167789.0,203302.0,179274.0,1
2024-11-19 23:09:35.073000+00:00,,,,-0.007330383,-0.04153884,-0.007330383,-20243.0,-2480.0,-3442.0,,,,,1
2024-11-19 23:09:35.099000+00:00,,,,,,,,,,121723.0,167789.0,203302.0,179274.0,1
2024-11-19 23:09:35.079000+00:00,-0.4965107,9.586844,-1.4344972,,,,,,,121723.0,167789.0,203302.0,179274.0,1
2024-11-19 23:09:35.094000+00:00,,,,,,,,,,121723.0,167789.0,203302.0,179274.0,1
2024-11-19 23:09:35.101000+00:00,-0.47976097,9.634702,-1.5493528,,,,,,,,,,,1
2024-11-19 23:09:35.104000+00:00,,,,,,,,,,121723.0,167789.0,203302.0,179274.0,1
2024-11-19 23:09:35.074000+00:00,,,,,,,,,,121770.0,167791.0,203368.0,179281.0,1
2024-11-19 23:09:35.089000+00:00,,,,,,,,,,121723.0,167789.0,203302.0,179274.0,1
2024-11-19 23:09:35.124000+00:00,,,,,,,,,,121732.0,167801.0,203329.0,179306.0,1
2024-11-19 23:09:35.123000+00:00,-0.48693943,9.623933,-1.5385851,,,,,,,,,,,1
2024-11-19 23:09:35.134000+00:00,-0.47736815,9.643076,-1.5194426,,,,,,,121732.0,167801.0,203329.0,179306.0,1
2024-11-19 23:09:35.114000+00:00,,,,,,,,,,121723.0,167789.0,203302.0,179274.0,1
2024-11-19 23:09:35.119000+00:00,,,,,,,,,,121732.0,167801.0,203329.0,179306.0,1
2024-11-19 23:09:35.112000+00:00,-0.47617176,9.659825,-1.5828524,,,,,,,,,,,1
2024-11-19 23:09:35.113000+00:00,,,,0.037873644,-0.04153884,-0.008552114,-20202.0,-2403.0,-3458.0,,,,,1
2024-11-19 23:09:35.139000+00:00,,,,,,,,,,121732.0,167801.0,203329.0,179306.0,1
2024-11-19 23:09:35.110000+00:00,,,,,,,,,,121723.0,167789.0,203302.0,179274.0,1
2024-11-19 23:09:35.129000+00:00,,,,,,,,,,121732.0,167801.0,203329.0,179306.0,1
2024-11-19 23:09:35.174000+00:00,,,,,,,,,,121679.0,167769.0,203268.0,179294.0,1
2024-11-19 23:09:35.156000+00:00,-0.4953143,9.588041,-1.4811573,,,,,,,,,,,1
2024-11-19 23:09:35.164000+00:00,,,,,,,,,,121679.0,167769.0,203268.0,179294.0,1
2024-11-19 23:09:35.159000+00:00,,,,,,,,,,121679.0,167769.0,203268.0,179294.0,1
2024-11-19 23:09:35.167000+00:00,-0.5036892,9.585648,-1.491925,,,,,,,,,,,1
2024-11-19 23:09:35.149000+00:00,,,,,,,,,,121732.0,167801.0,203329.0,179306.0,1
2024-11-19 23:09:35.145000+00:00,-0.48693943,9.62513,-1.5158533,,,,,,,,,,,1
2024-11-19 23:09:35.154000+00:00,,,,-0.002443461,-0.040317103,-0.019547688,-20137.0,-2431.0,-3457.0,121732.0,167801.0,203329.0,179306.0,1
2024-11-19 23:09:35.169000+00:00,,,,,,,,,,121679.0,167769.0,203268.0,179294.0,1
2024-11-19 23:09:35.215000+00:00,,,,,,,,,,121675.0,167770.0,203246.0,179300.0,1
2024-11-19 23:09:35.211000+00:00,-0.46540403,9.649057,-1.5684953,,,,,,,,,,,1
2024-11-19 23:09:35.198000+00:00,-0.5001,9.663415,-1.5756738,,,,,,,,,,,1
2024-11-19 23:09:35.200000+00:00,-0.4989035,9.645469,-1.5720845,0.02076942,-0.042760566,-0.007330383,-20193.0,-2426.0,-3419.0,121675.0,167770.0,203246.0,179300.0,1
2024-11-19 23:09:35.222000+00:00,-0.45702913,9.644273,-1.5278174,,,,,,,,,,,1
2024-11-19 23:09:35.225000+00:00,,,,,,,,,,121675.0,167770.0,203246.0,179300.0,1
2024-11-19 23:09:35.220000+00:00,,,,,,,,,,121675.0,167770.0,203246.0,179300.0,1
2024-11-19 23:09:35.210000+00:00,,,,,,,,,,121675.0,167770.0,203246.0,179300.0,1
2024-11-19 23:09:35.205000+00:00,,,,,,,,,,121675.0,167770.0,203246.0,179300.0,1
2024-11-19 23:09:35.296000+00:00,,,,,,,,,,121563.0,167699.0,203123.0,179190.0,1
2024-11-19 23:09:35.278000+00:00,-0.48693943,9.605987,-1.4835502,,,,,,,,,,,1
2024-11-19 23:09:35.286000+00:00,,,,,,,,,,121563.0,167699.0,203123.0,179190.0,1
2024-11-19 23:09:35.267000+00:00,-0.47497532,9.589237,-1.4739789,,,,,,,121647.0,167755.0,203216.0,179267.0,1
2024-11-19 23:09:35.283000+00:00,,,,0.02321288,-0.039095376,-0.02687807,-20155.0,-2449.0,-3453.0,,,,,1
2024-11-19 23:09:35.281000+00:00,,,,,,,,,,121563.0,167699.0,203123.0,179190.0,1
2024-11-19 23:09:35.271000+00:00,,,,,,,,,,121647.0,167755.0,203216.0,179267.0,1
2024-11-19 23:09:35.291000+00:00,,,,,,,,,,121563.0,167699.0,203123.0,179190.0,1
2024-11-19 23:09:35.289000+00:00,-0.49770713,9.614362,-1.5290138,,,,,,,,,,,1
2024-11-19 23:09:35.276000+00:00,,,,,,,,,,121563.0,167699.0,203123.0,179190.0,1
2024-11-19 23:09:35.313000+00:00,,,,,,,,,,121563.0,167699.0,203123.0,179190.0,1
2024-11-19 23:09:35.301000+00:00,-0.4809574,9.659825,-1.5589241,,,,,,,,,,,1
2024-11-19 23:09:35.318000+00:00,,,,,,,,,,121566.0,167651.0,203134.0,179122.0,1
2024-11-19 23:09:35.322000+00:00,-0.46899328,9.615559,-1.5493528,,,,,,,,,,,1
2024-11-19 23:09:35.303000+00:00,,,,,,,,,,121563.0,167699.0,203123.0,179190.0,1
2024-11-19 23:09:35.324000+00:00,,,,0.008552114,-0.045204025,-0.015882496,-20180.0,-2406.0,-3446.0,,,,,1
2024-11-19 23:09:35.311000+00:00,-0.45942196,9.650254,-1.552942,,,,,,,,,,,1
2024-11-19 23:09:35.328000+00:00,,,,,,,,,,121566.0,167651.0,203134.0,179122.0,1
2024-11-19 23:09:35.308000+00:00,,,,,,,,,,121563.0,167699.0,203123.0,179190.0,1
2024-11-19 23:09:35.323000+00:00,,,,,,,,,,121566.0,167651.0,203134.0,179122.0,1
2024-11-19 23:09:35.373000+00:00,-0.50727844,9.579666,-1.4943178,,,,,,,,,,,1
2024-11-19 23:09:35.371000+00:00,,,,,,,,,,121597.0,167621.0,203137.0,179091.0,1
2024-11-19 23:09:35.366000+00:00,,,,,,,,,,121597.0,167621.0,203137.0,179091.0,1
2024-11-19 23:09:35.362000+00:00,-0.50727844,9.572488,-1.5098711,,,,,,,,,,,1
2024-11-19 23:09:35.349000+00:00,-0.4989035,9.597612,-1.5302103,,,,,,,121566.0,167651.0,203134.0,179122.0,1
2024-11-19 23:09:35.365000+00:00,,,,0.0012217305,-0.039095376,-0.019547688,-20200.0,-2403.0,-3426.0,,,,,1
2024-11-19 23:09:35.361000+00:00,,,,,,,,,,121597.0,167621.0,203137.0,179091.0,1
2024-11-19 23:09:35.356000+00:00,,,,,,,,,,121597.0,167621.0,203137.0,179091.0,1
2024-11-19 23:09:35.351000+00:00,-0.4989035,9.597612,-1.5302103,,,,,,,121566.0,167651.0,203134.0,179122.0,1
2024-11-19 23:09:35.395000+00:00,-0.5132605,9.597612,-1.5457635,,,,,,,,,,,1
2024-11-19 23:09:35.406000+00:00,-0.52522457,9.643076,-1.5649061,0.02565634,-0.04153884,-0.009773844,-20213.0,-2442.0,-3444.0,121595.0,167590.0,203159.0,179072.0,1
2024-11-19 23:09:35.384000+00:00,-0.5036892,9.640682,-1.5050855,,,,,,,,,,,1
2024-11-19 23:09:35.386000+00:00,,,,,,,,,,121597.0,167621.0,203137.0,179091.0,1
2024-11-19 23:09:35.396000+00:00,,,,,,,,,,121595.0,167590.0,203159.0,179072.0,1
2024-11-19 23:09:35.401000+00:00,,,,,,,,,,121595.0,167590.0,203159.0,179072.0,1
2024-11-19 23:09:35.377000+00:00,,,,,,,,,,121597.0,167621.0,203137.0,179091.0,1
2024-11-19 23:09:35.391000+00:00,,,,,,,,,,121597.0,167621.0,203137.0,179091.0,1
2024-11-19 23:09:35.381000+00:00,,,,,,,,,,121597.0,167621.0,203137.0,179091.0,1
2024-11-19 23:09:35.426000+00:00,,,,,,,,,,121595.0,167590.0,203159.0,179072.0,1
2024-11-19 23:09:35.431000+00:00,,,,,,,,,,121595.0,167590.0,203159.0,179072.0,1
2024-11-19 23:09:35.417000+00:00,-0.4989035,9.626327,-1.5373887,,,,,,,,,,,1
2024-11-19 23:09:35.421000+00:00,,,,,,,,,,121595.0,167590.0,203159.0,179072.0,1
2024-11-19 23:09:35.439000+00:00,-0.47018966,9.62154,-1.5110675,,,,,,,,,,,1
2024-11-19 23:09:35.412000+00:00,,,,,,,,,,121595.0,167590.0,203159.0,179072.0,1
2024-11-19 23:09:35.446000+00:00,,,,,,,,,,121596.0,167545.0,203163.0,179067.0,1
2024-11-19 23:09:35.428000+00:00,-0.49052867,9.604791,-1.5098711,,,,,,,,,,,1
2024-11-19 23:09:35.416000+00:00,,,,,,,,,,121595.0,167590.0,203159.0,179072.0,1
2024-11-19 23:09:35.436000+00:00,,,,,,,,,,121596.0,167545.0,203163.0,179067.0,1
2024-11-19 23:09:35.441000+00:00,,,,,,,,,,121596.0,167545.0,203163.0,179067.0,1
2024-11-19 23:09:35.456000+00:00,,,,,,,,,,121596.0,167545.0,203163.0,179067.0,1
2024-11-19 23:09:35.450000+00:00,-0.45942196,9.604791,-1.526621,,,,,,,,,,,1
2024-11-19 23:09:35.448000+00:00,,,,0.0036651916,-0.047647487,-0.008552114,-20230.0,-2415.0,-3367.0,,,,,1
2024-11-19 23:09:35.472000+00:00,-0.45702913,9.600005,-1.5290138,,,,,,,,,,,1
2024-11-19 23:09:35.476000+00:00,,,,,,,,,,121615.0,167573.0,203160.0,179081.0,1
2024-11-19 23:09:35.466000+00:00,,,,,,,,,,121596.0,167545.0,203163.0,179067.0,1
2024-11-19 23:09:35.471000+00:00,,,,,,,,,,121596.0,167545.0,203163.0,179067.0,1
2024-11-19 23:09:35.451000+00:00,,,,,,,,,,121596.0,167545.0,203163.0,179067.0,1
2024-11-19 23:09:35.461000+00:00,-0.45463634,9.592826,-1.5194426,,,,,,,121596.0,167545.0,203163.0,179067.0,1
2024-11-19 23:09:35.481000+00:00,,,,,,,,,,121615.0,167573.0,203160.0,179081.0,1
2024-11-19 23:09:35.505000+00:00,,,,,,,,,,121615.0,167573.0,203160.0,179081.0,1
2024-11-19 23:09:35.510000+00:00,,,,,,,,,,121615.0,167573.0,203160.0,179081.0,1
2024-11-19 23:09:35.500000+00:00,-0.5048856,9.633505,-1.5672989,0.007330383,-0.040317103,-0.013439035,-20221.0,-2503.0,-3433.0,121615.0,167573.0,203160.0,179081.0,1
2024-11-19 23:09:35.511000+00:00,-0.5156533,9.613166,-1.5517455,,,,,,,,,,,1
2024-11-19 23:09:35.522000+00:00,-0.5096713,9.616755,-1.5314066,,,,,,,,,,,1
2024-11-19 23:09:35.520000+00:00,,,,,,,,,,121653.0,167562.0,203181.0,179084.0,1
2024-11-19 23:09:35.515000+00:00,,,,,,,,,,121653.0,167562.0,203181.0,179084.0,1
2024-11-19 23:09:35.498000+00:00,-0.5048856,9.633505,-1.5672989,,,,,,,,,,,1
2024-11-19 23:09:35.525000+00:00,,,,,,,,,,121653.0,167562.0,203181.0,179084.0,1
2024-11-19 23:09:35.555000+00:00,-0.4821538,9.602398,-1.5242282,,,,,,,121642.0,167567.0,203172.0,179080.0,1
2024-11-19 23:09:35.545000+00:00,,,,,,,,,,121653.0,167562.0,203181.0,179084.0,1
2024-11-19 23:09:35.533000+00:00,-0.51804614,9.604791,-1.5014963,,,,,,,,,,,1
2024-11-19 23:09:35.544000+00:00,-0.5120641,9.609576,-1.497907,,,,,,,,,,,1
2024-11-19 23:09:35.540000+00:00,,,,,,,,,,121653.0,167562.0,203181.0,179084.0,1
2024-11-19 23:09:35.531000+00:00,,,,,,,,,,121653.0,167562.0,203181.0,179084.0,1
2024-11-19 23:09:35.550000+00:00,,,,,,,,,,121653.0,167562.0,203181.0,179084.0,1
2024-11-19 23:09:35.560000+00:00,,,,,,,,,,121642.0,167567.0,203172.0,179080.0,1
2024-11-19 23:09:35.541000+00:00,,,,-0.004886922,-0.04153884,-0.009773844,-20221.0,-2478.0,-3446.0,,,,,1
2024-11-19 23:09:35.535000+00:00,,,,,,,,,,121653.0,167562.0,203181.0,179084.0,1
2024-11-19 23:09:35.602000+00:00,,,,,,,,,,121620.0,167554.0,203152.0,179076.0,1
2024-11-19 23:09:35.622000+00:00,,,,,,,,,,121620.0,167554.0,203152.0,179076.0,1
2024-11-19 23:09:35.617000+00:00,,,,,,,,,,121620.0,167554.0,203152.0,179076.0,1
2024-11-19 23:09:35.600000+00:00,-0.48933226,9.643076,-1.619941,,,,,,,,,,,1
2024-11-19 23:09:35.607000+00:00,,,,,,,,,,121620.0,167554.0,203152.0,179076.0,1
2024-11-19 23:09:35.610000+00:00,-0.4989035,9.652647,-1.6043876,,,,,,,,,,,1
2024-11-19 23:09:35.621000+00:00,-0.49172506,9.65504,-1.5672989,,,,,,,,,,,1
2024-11-19 23:09:35.627000+00:00,,,,,,,,,,121620.0,167554.0,203152.0,179076.0,1
2024-11-19 23:09:35.623000+00:00,,,,-0.02076942,-0.05009095,0.0,-20161.0,-2491.0,-3437.0,,,,,1
2024-11-19 23:09:35.612000+00:00,,,,,,,,,,121620.0,167554.0,203152.0,179076.0,1
2024-11-19 23:09:35.652000+00:00,,,,,,,,,,121655.0,167557.0,203207.0,179062.0,1
2024-11-19 23:09:35.664000+00:00,,,,-0.009773844,-0.042760566,-0.008552114,-20229.0,-2417.0,-3398.0,,,,,1
2024-11-19 23:09:35.654000+00:00,-0.4725825,9.589237,-1.4512471,,,,,,,,,,,1
2024-11-19 23:09:35.643000+00:00,-0.4941179,9.585648,-1.471586,,,,,,,,,,,1
2024-11-19 23:09:35.637000+00:00,,,,,,,,,,121655.0,167557.0,203207.0,179062.0,1
2024-11-19 23:09:35.662000+00:00,,,,,,,,,,121655.0,167557.0,203207.0,179062.0,1
2024-11-19 23:09:35.642000+00:00,,,,,,,,,,121655.0,167557.0,203207.0,179062.0,1
2024-11-19 23:09:35.633000+00:00,-0.49770713,9.601201,-1.5038891,,,,,,,121655.0,167557.0,203207.0,179062.0,1
2024-11-19 23:09:35.647000+00:00,,,,,,,,,,121655.0,167557.0,203207.0,179062.0,1
2024-11-19 23:09:35.657000+00:00,,,,,,,,,,121655.0,167557.0,203207.0,179062.0,1
2024-11-19 23:09:35.676000+00:00,-0.48693943,9.608379,-1.5074784,,,,,,,,,,,1
2024-11-19 23:09:35.693000+00:00,,,,,,,,,,121709.0,167532.0,203239.0,179058.0,1
2024-11-19 23:09:35.667000+00:00,,,,,,,,,,121655.0,167557.0,203207.0,179062.0,1
2024-11-19 23:09:35.698000+00:00,-0.47736815,9.626327,-1.5625132,,,,,,,121709.0,167532.0,203239.0,179058.0,1
2024-11-19 23:09:35.688000+00:00,,,,,,,,,,121709.0,167532.0,203239.0,179058.0,1
2024-11-19 23:09:35.678000+00:00,,,,,,,,,,121709.0,167532.0,203239.0,179058.0,1
2024-11-19 23:09:35.687000+00:00,-0.46899328,9.645469,-1.54696,,,,,,,,,,,1
2024-11-19 23:09:35.683000+00:00,,,,,,,,,,121709.0,167532.0,203239.0,179058.0,1
2024-11-19 23:09:35.666000+00:00,-0.4845466,9.571292,-1.4548364,,,,,,,,,,,1
2024-11-19 23:09:35.672000+00:00,,,,,,,,,,121655.0,167557.0,203207.0,179062.0,1
2024-11-19 23:09:35.739000+00:00,,,,,,,,,,121646.0,167508.0,203204.0,179046.0,1
2024-11-19 23:09:35.758000+00:00,,,,,,,,,,121627.0,167521.0,203150.0,179022.0,1
2024-11-19 23:09:35.763000+00:00,,,,,,,,,,121627.0,167521.0,203150.0,179022.0,1
2024-11-19 23:09:35.743000+00:00,,,,,,,,,,121646.0,167508.0,203204.0,179046.0,1
2024-11-19 23:09:35.748000+00:00,,,,,,,,,,121646.0,167508.0,203204.0,179046.0,1
2024-11-19 23:09:35.742000+00:00,-0.46420762,9.56531,-1.5505491,,,,,,,,,,,1
2024-11-19 23:09:35.753000+00:00,-0.4630112,9.59522,-1.5361923,,,,,,,121627.0,167521.0,203150.0,179022.0,1
2024-11-19 23:09:35.746000+00:00,,,,0.0036651916,-0.042760566,-0.014660766,-20189.0,-2473.0,-3359.0,,,,,1
2024-11-19 23:09:35.764000+00:00,-0.4630112,9.604791,-1.5397815,,,,,,,,,,,1
2024-11-19 23:09:35.768000+00:00,,,,,,,,,,121627.0,167521.0,203150.0,179022.0,1
2024-11-19 23:09:35.810000+00:00,,,,,,,,,,121694.0,167528.0,203235.0,179069.0,1
2024-11-19 23:09:35.820000+00:00,,,,,,,,,,121694.0,167528.0,203235.0,179069.0,1
2024-11-19 23:09:35.825000+00:00,,,,,,,,,,121694.0,167528.0,203235.0,179069.0,1
2024-11-19 23:09:35.805000+00:00,,,,,,,,,,121694.0,167528.0,203235.0,179069.0,1
2024-11-19 23:09:35.811000+00:00,-0.49172506,9.629915,-1.5696917,,,,,,,,,,,1
2024-11-19 23:09:35.822000+00:00,-0.48574302,9.623933,-1.5864415,,,,,,,,,,,1
2024-11-19 23:09:35.800000+00:00,-0.50727844,9.616755,-1.5672989,0.015882496,-0.043982297,-0.02076942,-20188.0,-2517.0,-3398.0,121694.0,167528.0,203235.0,179069.0,1
2024-11-19 23:09:35.797000+00:00,,,,,,,,,,121694.0,167528.0,203235.0,179069.0,1
2024-11-19 23:09:35.815000+00:00,,,,,,,,,,121694.0,167528.0,203235.0,179069.0,1
2024-11-19 23:09:35.891000+00:00,,,,,,,,,,121538.0,167492.0,203062.0,178982.0,1
2024-11-19 23:09:35.867000+00:00,-0.47497532,9.594024,-1.5373887,,,,,,,121642.0,167521.0,203190.0,179040.0,1
2024-11-19 23:09:35.889000+00:00,-0.4809574,9.592826,-1.5397815,,,,,,,,,,,1
2024-11-19 23:09:35.876000+00:00,,,,,,,,,,121538.0,167492.0,203062.0,178982.0,1
2024-11-19 23:09:35.882000+00:00,,,,0.0061086523,-0.04153884,-0.02076942,-20236.0,-2433.0,-3428.0,,,,,1
2024-11-19 23:09:35.871000+00:00,,,,,,,,,,121642.0,167521.0,203190.0,179040.0,1
2024-11-19 23:09:35.878000+00:00,-0.4821538,9.600005,-1.5337994,,,,,,,,,,,1
2024-11-19 23:09:35.881000+00:00,,,,,,,,,,121538.0,167492.0,203062.0,178982.0,1
2024-11-19 23:09:35.896000+00:00,,,,,,,,,,121538.0,167492.0,203062.0,178982.0,1
2024-11-19 23:09:35.886000+00:00,,,,,,,,,,121538.0,167492.0,203062.0,178982.0,1
2024-11-19 23:09:35.913000+00:00,,,,,,,,,,121512.0,167458.0,203035.0,178921.0,1
2024-11-19 23:09:35.903000+00:00,,,,,,,,,,121538.0,167492.0,203062.0,178982.0,1
2024-11-19 23:09:35.922000+00:00,-0.5084749,9.611969,-1.5888344,,,,,,,,,,,1
2024-11-19 23:09:35.918000+00:00,,,,,,,,,,121512.0,167458.0,203035.0,178921.0,1
2024-11-19 23:09:35.929000+00:00,,,,,,,,,,121512.0,167458.0,203035.0,178921.0,1
2024-11-19 23:09:35.911000+00:00,-0.49172506,9.604791,-1.552942,,,,,,,,,,,1
2024-11-19 23:09:35.924000+00:00,,,,0.036651913,-0.042760566,-0.02076942,-20155.0,-2445.0,-3404.0,121512.0,167458.0,203035.0,178921.0,1
2024-11-19 23:09:35.933000+00:00,-0.4941179,9.627522,-1.6163518,,,,,,,,,,,1
2024-11-19 23:09:35.901000+00:00,-0.49292147,9.586844,-1.5457635,,,,,,,,,,,1
2024-11-19 23:09:35.908000+00:00,,,,,,,,,,121538.0,167492.0,203062.0,178982.0,1
2024-11-19 23:09:35.936000+00:00,,,,,,,,,,121512.0,167458.0,203035.0,178921.0,1
2024-11-19 23:09:35.948000+00:00,,,,,,,,,,,,,,1
2024-11-19 23:09:35.980000+00:00,-0.5012964,9.616755,-1.5349958,,,,,,,,,,,1
2024-11-19 23:09:35.974000+00:00,,,,,,,,,,121540.0,167425.0,203029.0,178865.0,1
2024-11-19 23:09:35.979000+00:00,,,,,,,,,,121540.0,167425.0,203029.0,178865.0,1
2024-11-19 23:09:35.939000+00:00,,,,,,,,,,121512.0,167458.0,203035.0,178921.0,1
2024-11-19 23:09:35.944000+00:00,-0.49770713,9.628719,-1.5936201,,,,,,,121512.0,167458.0,203035.0,178921.0,1
2024-11-19 23:09:35.969000+00:00,-0.50608206,9.627522,-1.5302103,0.018325957,-0.043982297,-0.017104227,-20226.0,-2441.0,-3446.0,121540.0,167425.0,203029.0,178865.0,1
2024-11-19 23:09:35.989000+00:00,,,,,,,,,,121540.0,167425.0,203029.0,178865.0,1
2024-11-19 23:09:35.994000+00:00,,,,,,,,,,121554.0,167364.0,203076.0,178815.0,1
2024-11-19 23:09:35.985000+00:00,,,,,,,,,,121540.0,167425.0,203029.0,178865.0,1
2024-11-19 23:09:35.991000+00:00,-0.5001,9.583255,-1.532603,,,,,,,,,,,1
2024-11-19 23:09:35.999000+00:00,,,,,,,,,,121554.0,167364.0,203076.0,178815.0,1
2024-11-19 23:09:36.011000+00:00,,,,0.02687807,-0.043982297,-0.008552114,-20139.0,-2439.0,-3416.0,121554.0,167364.0,203076.0,178815.0,1
2024-11-19 23:09:36.035000+00:00,-0.48574302,9.622737,-1.6534406,,,,,,,,,,,1
2024-11-19 23:09:36.036000+00:00,,,,,,,,,,121535.0,167356.0,203043.0,178797.0,1
2024-11-19 23:09:36.016000+00:00,,,,,,,,,,121554.0,167364.0,203076.0,178815.0,1
2024-11-19 23:09:36.024000+00:00,-0.46420762,9.608379,-1.6091733,,,,,,,,,,,1
2024-11-19 23:09:36.009000+00:00,-0.47856456,9.602398,-1.5625132,,,,,,,,,,,1
2024-11-19 23:09:36.013000+00:00,-0.47856456,9.602398,-1.5625132,,,,,,,,,,,1
2024-11-19 23:09:36.026000+00:00,,,,,,,,,,121554.0,167364.0,203076.0,178815.0,1
2024-11-19 23:09:36.031000+00:00,,,,,,,,,,121554.0,167364.0,203076.0,178815.0,1
2024-11-19 23:09:36.021000+00:00,,,,,,,,,,121554.0,167364.0,203076.0,178815.0,1
2024-11-19 23:09:36.071000+00:00,,,,,,,,,,121535.0,167356.0,203043.0,178797.0,1
2024-11-19 23:09:36.046000+00:00,-0.49292147,9.627522,-1.6725831,,,,,,,121535.0,167356.0,203043.0,178797.0,1
2024-11-19 23:09:36.051000+00:00,,,,,,,,,,121535.0,167356.0,203043.0,178797.0,1
2024-11-19 23:09:36.066000+00:00,,,,,,,,,,121535.0,167356.0,203043.0,178797.0,1
2024-11-19 23:09:36.057000+00:00,-0.48933226,9.633505,-1.6486549,,,,,,,,,,,1
2024-11-19 23:09:36.068000+00:00,-0.4941179,9.608379,-1.6175482,,,,,,,,,,,1
2024-11-19 23:09:36.052000+00:00,,,,0.02443461,-0.04642576,-0.004886922,-20195.0,-2469.0,-3362.0,,,,,1
2024-11-19 23:09:36.056000+00:00,,,,,,,,,,121535.0,167356.0,203043.0,178797.0,1
2024-11-19 23:09:36.041000+00:00,,,,,,,,,,121535.0,167356.0,203043.0,178797.0,1
2024-11-19 23:09:36.061000+00:00,,,,,,,,,,121535.0,167356.0,203043.0,178797.0,1
2024-11-19 23:09:36.098000+00:00,,,,,,,,,,121486.0,167334.0,203017.0,178769.0,1
2024-11-19 23:09:36.100000+00:00,-0.5120641,9.62513,-1.5421743,-0.0036651916,-0.04642576,-0.009773844,-20172.0,-2481.0,-3415.0,121486.0,167334.0,203017.0,178769.0,1
2024-11-19 23:09:36.105000+00:00,,,,,,,,,,121486.0,167334.0,203017.0,178769.0,1
2024-11-19 23:09:36.110000+00:00,,,,,,,,,,121486.0,167334.0,203017.0,178769.0,1
2024-11-19 23:09:36.120000+00:00,,,,,,,,,,121549.0,167342.0,203068.0,178812.0,1
2024-11-19 23:09:36.111000+00:00,-0.5228318,9.583255,-1.5110675,,,,,,,,,,,1
2024-11-19 23:09:36.125000+00:00,,,,,,,,,,121549.0,167342.0,203068.0,178812.0,1
2024-11-19 23:09:36.115000+00:00,,,,,,,,,,121549.0,167342.0,203068.0,178812.0,1
2024-11-19 23:09:36.122000+00:00,-0.5001,9.584452,-1.5373887,,,,,,,,,,,1
2024-11-19 23:09:36.141000+00:00,,,,0.028099801,-0.045204025,-0.009773844,-20198.0,-2524.0,-3413.0,,,,,1
2024-11-19 23:09:36.144000+00:00,-0.45463634,9.598808,-1.5900308,,,,,,,,,,,1
2024-11-19 23:09:36.150000+00:00,,,,,,,,,,121549.0,167342.0,203068.0,178812.0,1
2024-11-19 23:09:36.131000+00:00,,,,,,,,,,121549.0,167342.0,203068.0,178812.0,1
2024-11-19 23:09:36.145000+00:00,,,,,,,,,,121549.0,167342.0,203068.0,178812.0,1
2024-11-19 23:09:36.160000+00:00,,,,,,,,,,121559.0,167342.0,203083.0,178808.0,1
2024-11-19 23:09:36.133000+00:00,-0.47856456,9.601201,-1.5672989,,,,,,,,,,,1
2024-11-19 23:09:36.135000+00:00,,,,,,,,,,121549.0,167342.0,203068.0,178812.0,1
2024-11-19 23:09:36.155000+00:00,-0.45343992,9.592826,-1.6079769,,,,,,,121559.0,167342.0,203083.0,178808.0,1
2024-11-19 23:09:36.140000+00:00,,,,,,,,,,121549.0,167342.0,203068.0,178812.0,1
2024-11-19 23:09:36.217000+00:00,,,,,,,,,,121543.0,167351.0,203067.0,178786.0,1
2024-11-19 23:09:36.227000+00:00,,,,,,,,,,121543.0,167351.0,203067.0,178786.0,1
2024-11-19 23:09:36.223000+00:00,,,,-0.012217305,-0.045204025,-0.013439035,-20191.0,-2456.0,-3345.0,,,,,1
2024-11-19 23:09:36.212000+00:00,,,,,,,,,,121543.0,167351.0,203067.0,178786.0,1
2024-11-19 23:09:36.221000+00:00,-0.52881384,9.579666,-1.5577276,,,,,,,,,,,1
2024-11-19 23:09:36.222000+00:00,,,,,,,,,,121543.0,167351.0,203067.0,178786.0,1
2024-11-19 23:09:36.207000+00:00,,,,,,,,,,121543.0,167351.0,203067.0,178786.0,1
2024-11-19 23:09:36.210000+00:00,-0.5168497,9.622737,-1.6055841,,,,,,,,,,,1
2024-11-19 23:09:36.200000+00:00,-0.5012964,9.619148,-1.6438692,,,,,,,,,,,1
2024-11-19 23:09:36.202000+00:00,,,,,,,,,,121543.0,167351.0,203067.0,178786.0,1
2024-11-19 23:09:36.254000+00:00,-0.5120641,9.56531,-1.6019949,,,,,,,,,,,1
2024-11-19 23:09:36.264000+00:00,,,,0.036651913,-0.045204025,-0.010995574,-20174.0,-2514.0,-3339.0,,,,,1
2024-11-19 23:09:36.233000+00:00,-0.5144569,9.56172,-1.5385851,,,,,,,121564.0,167342.0,203093.0,178778.0,1
2024-11-19 23:09:36.252000+00:00,,,,,,,,,,121564.0,167342.0,203093.0,178778.0,1
2024-11-19 23:09:36.262000+00:00,,,,,,,,,,121564.0,167342.0,203093.0,178778.0,1
2024-11-19 23:09:36.257000+00:00,,,,,,,,,,121564.0,167342.0,203093.0,178778.0,1
2024-11-19 23:09:36.247000+00:00,,,,,,,,,,121564.0,167342.0,203093.0,178778.0,1
2024-11-19 23:09:36.243000+00:00,-0.5048856,9.567701,-1.5625132,,,,,,,,,,,1
2024-11-19 23:09:36.237000+00:00,,,,,,,,,,121564.0,167342.0,203093.0,178778.0,1
2024-11-19 23:09:36.242000+00:00,,,,,,,,,,121564.0,167342.0,203093.0,178778.0,1
2024-11-19 23:09:36.273000+00:00,,,,,,,,,,121573.0,167358.0,203111.0,178784.0,1
2024-11-19 23:09:36.287000+00:00,-0.48693943,9.639486,-1.6701903,,,,,,,,,,,1
2024-11-19 23:09:36.266000+00:00,-0.5048856,9.607183,-1.64028,,,,,,,,,,,1
2024-11-19 23:09:36.289000+00:00,,,,,,,,,,121573.0,167358.0,203111.0,178784.0,1
2024-11-19 23:09:36.298000+00:00,-0.4725825,9.639486,-1.6247267,,,,,,,,,,,1
2024-11-19 23:09:36.268000+00:00,,,,,,,,,,121564.0,167342.0,203093.0,178778.0,1
2024-11-19 23:09:36.278000+00:00,,,,,,,,,,121573.0,167358.0,203111.0,178784.0,1
2024-11-19 23:09:36.276000+00:00,-0.49172506,9.652647,-1.668994,,,,,,,,,,,1
2024-11-19 23:09:36.283000+00:00,,,,,,,,,,121573.0,167358.0,203111.0,178784.0,1
2024-11-19 23:09:36.294000+00:00,,,,,,,,,,121573.0,167358.0,203111.0,178784.0,1
2024-11-19 23:09:36.299000+00:00,,,,,,,,,,121573.0,167358.0,203111.0,178784.0,1
2024-11-19 23:09:36.319000+00:00,,,,,,,,,,121587.0,167316.0,203107.0,178764.0,1
2024-11-19 23:09:36.331000+00:00,-0.49770713,9.564113,-1.5421743,,,,,,,,,,,1
2024-11-19 23:09:36.329000+00:00,,,,,,,,,,121587.0,167316.0,203107.0,178764.0,1
2024-11-19 23:09:36.324000+00:00,,,,,,,,,,121587.0,167316.0,203107.0,178764.0,1
2024-11-19 23:09:36.305000+00:00,,,,-0.0012217305,-0.042760566,-0.0036651916,-20223.0,-2505.0,-3308.0,,,,,1
2024-11-19 23:09:36.309000+00:00,-0.49052867,9.632308,-1.6031913,,,,,,,121587.0,167316.0,203107.0,178764.0,1
2024-11-19 23:09:36.314000+00:00,,,,,,,,,,121587.0,167316.0,203107.0,178764.0,1
2024-11-19 23:09:36.320000+00:00,-0.48933226,9.603595,-1.5672989,,,,,,,,,,,1
2024-11-19 23:09:36.334000+00:00,,,,,,,,,,121587.0,167316.0,203107.0,178764.0,1
2024-11-19 23:09:36.353000+00:00,-0.45463634,9.585648,-1.5337994,,,,,,,,,,,1
2024-11-19 23:09:36.364000+00:00,-0.46181482,9.56531,-1.5756738,,,,,,,121566.0,167351.0,203112.0,178776.0,1
2024-11-19 23:09:36.340000+00:00,,,,,,,,,,121587.0,167316.0,203107.0,178764.0,1
2024-11-19 23:09:36.349000+00:00,,,,,,,,,,121587.0,167316.0,203107.0,178764.0,1
2024-11-19 23:09:36.354000+00:00,,,,,,,,,,121566.0,167351.0,203112.0,178776.0,1
2024-11-19 23:09:36.359000+00:00,,,,,,,,,,121566.0,167351.0,203112.0,178776.0,1
2024-11-19 23:09:36.344000+00:00,,,,,,,,,,121587.0,167316.0,203107.0,178764.0,1
2024-11-19 23:09:36.369000+00:00,,,,,,,,,,121566.0,167351.0,203112.0,178776.0,1
2024-11-19 23:09:36.342000+00:00,-0.48813584,9.570095,-1.5254246,,,,,,,,,,,1
2024-11-19 23:09:36.346000+00:00,,,,-0.012217305,-0.047647487,-0.004886922,-20180.0,-2437.0,-3362.0,,,,,1
2024-11-19 23:09:36.410000+00:00,,,,,,,,,,121801.0,167448.0,203379.0,178849.0,1
2024-11-19 23:09:36.400000+00:00,-0.4953143,9.637094,-1.6737796,0.032986723,-0.047647487,-0.007330383,-20230.0,-2486.0,-3322.0,121801.0,167448.0,203379.0,178849.0,1
2024-11-19 23:09:36.422000+00:00,-0.5144569,9.628719,-1.6522442,,,,,,,,,,,1
2024-11-19 23:09:36.425000+00:00,,,,,,,,,,121801.0,167448.0,203379.0,178849.0,1
2024-11-19 23:09:36.420000+00:00,,,,,,,,,,121801.0,167448.0,203379.0,178849.0,1
2024-11-19 23:09:36.405000+00:00,,,,,,,,,,121801.0,167448.0,203379.0,178849.0,1
2024-11-19 23:09:36.415000+00:00,,,,,,,,,,121801.0,167448.0,203379.0,178849.0,1
2024-11-19 23:09:36.398000+00:00,,,,,,,,,,121801.0,167448.0,203379.0,178849.0,1
2024-11-19 23:09:36.411000+00:00,-0.51086766,9.615559,-1.674976,,,,,,,,,,,1
2024-11-19 23:09:36.450000+00:00,,,,,,,,,,121906.0,167499.0,203507.0,178901.0,1
2024-11-19 23:09:36.431000+00:00,,,,,,,,,,121906.0,167499.0,203507.0,178901.0,1
2024-11-19 23:09:36.455000+00:00,-0.5096713,9.601201,-1.5888344,,,,,,,121906.0,167499.0,203507.0,178901.0,1
2024-11-19 23:09:36.445000+00:00,,,,,,,,,,121906.0,167499.0,203507.0,178901.0,1
2024-11-19 23:09:36.433000+00:00,-0.5192425,9.607183,-1.6211374,,,,,,,,,,,1
2024-11-19 23:09:36.435000+00:00,,,,,,,,,,121906.0,167499.0,203507.0,178901.0,1
2024-11-19 23:09:36.444000+00:00,-0.5276174,9.59163,-1.5972092,,,,,,,,,,,1
2024-11-19 23:09:36.441000+00:00,,,,-0.007330383,-0.043982297,-0.018325957,-20230.0,-2496.0,-3342.0,,,,,1
2024-11-19 23:09:36.460000+00:00,,,,,,,,,,121906.0,167499.0,203507.0,178901.0,1
2024-11-19 23:09:36.440000+00:00,,,,,,,,,,121906.0,167499.0,203507.0,178901.0,1
2024-11-19 23:09:36.501000+00:00,,,,,,,,,,121881.0,167503.0,203478.0,178887.0,1
2024-11-19 23:09:36.532000+00:00,-0.45822555,9.59163,-1.6797616,,,,,,,,,,,1
2024-11-19 23:09:36.517000+00:00,,,,,,,,,,121885.0,167461.0,203473.0,178834.0,1
2024-11-19 23:09:36.500000+00:00,-0.45702913,9.62154,-1.6295123,,,,,,,,,,,1
2024-11-19 23:09:36.528000+00:00,,,,,,,,,,121885.0,167461.0,203473.0,178834.0,1
2024-11-19 23:09:36.512000+00:00,,,,,,,,,,121885.0,167461.0,203473.0,178834.0,1
2024-11-19 23:09:36.521000+00:00,-0.44745788,9.56172,-1.6618154,,,,,,,,,,,1
2024-11-19 23:09:36.510000+00:00,-0.43429735,9.601201,-1.634298,,,,,,,,,,,1
2024-11-19 23:09:36.506000+00:00,,,,,,,,,,121881.0,167503.0,203478.0,178887.0,1
2024-11-19 23:09:36.523000+00:00,,,,0.03176499,-0.045204025,-0.017104227,-20209.0,-2507.0,-3231.0,121885.0,167461.0,203473.0,178834.0,1
2024-11-19 23:09:36.555000+00:00,-0.47617176,9.631111,-1.6881365,,,,,,,,,,,1
2024-11-19 23:09:36.553000+00:00,,,,,,,,,,121826.0,167371.0,203437.0,178728.0,1
2024-11-19 23:09:36.558000+00:00,,,,,,,,,,121826.0,167371.0,203437.0,178728.0,1
2024-11-19 23:09:36.538000+00:00,,,,,,,,,,121885.0,167461.0,203473.0,178834.0,1
2024-11-19 23:09:36.566000+00:00,-0.4821538,9.623933,-1.6666011,,,,,,,,,,,1
2024-11-19 23:09:36.543000+00:00,-0.46420762,9.609576,-1.707279,,,,,,,121885.0,167461.0,203473.0,178834.0,1
2024-11-19 23:09:36.563000+00:00,,,,,,,,,,121826.0,167371.0,203437.0,178728.0,1
2024-11-19 23:09:36.564000+00:00,,,,-0.015882496,-0.045204025,-0.002443461,-20145.0,-2529.0,-3289.0,,,,,1
2024-11-19 23:09:36.548000+00:00,,,,,,,,,,121885.0,167461.0,203473.0,178834.0,1
2024-11-19 23:09:36.535000+00:00,,,,,,,,,,121885.0,167461.0,203473.0,178834.0,1
2024-11-19 23:09:36.569000+00:00,,,,,,,,,,121826.0,167371.0,203437.0,178728.0,1
2024-11-19 23:09:36.604000+00:00,,,,,,,,,,121850.0,167349.0,203494.0,178708.0,1
2024-11-19 23:09:36.588000+00:00,-0.5228318,9.577272,-1.6007985,,,,,,,,,,,1
2024-11-19 23:09:36.577000+00:00,-0.52522457,9.586844,-1.6354944,,,,,,,,,,,1
2024-11-19 23:09:36.584000+00:00,,,,,,,,,,121826.0,167371.0,203437.0,178728.0,1
2024-11-19 23:09:36.579000+00:00,,,,,,,,,,121826.0,167371.0,203437.0,178728.0,1
2024-11-19 23:09:36.599000+00:00,-0.53958154,9.586844,-1.5756738,,,,,,,121850.0,167349.0,203494.0,178708.0,1
2024-11-19 23:09:36.594000+00:00,,,,,,,,,,121850.0,167349.0,203494.0,178708.0,1
2024-11-19 23:09:36.573000+00:00,,,,,,,,,,121826.0,167371.0,203437.0,178728.0,1
2024-11-19 23:09:36.589000+00:00,,,,,,,,,,121850.0,167349.0,203494.0,178708.0,1
2024-11-19 23:09:36.646000+00:00,,,,0.02076942,-0.042760566,-0.012217305,-20175.0,-2486.0,-3320.0,121852.0,167336.0,203497.0,178691.0,1
2024-11-19 23:09:36.665000+00:00,-0.4606184,9.592826,-1.6522442,,,,,,,,,,,1
2024-11-19 23:09:36.666000+00:00,,,,,,,,,,121852.0,167336.0,203497.0,178691.0,1
2024-11-19 23:09:36.656000+00:00,,,,,,,,,,121852.0,167336.0,203497.0,178691.0,1
2024-11-19 23:09:36.671000+00:00,,,,,,,,,,121838.0,167336.0,203472.0,178669.0,1
2024-11-19 23:09:36.644000+00:00,-0.48933226,9.609576,-1.6378871,,,,,,,,,,,1
2024-11-19 23:09:36.654000+00:00,-0.46779686,9.614362,-1.6414764,,,,,,,,,,,1
2024-11-19 23:09:36.651000+00:00,,,,,,,,,,121852.0,167336.0,203497.0,178691.0,1
2024-11-19 23:09:36.661000+00:00,,,,,,,,,,121852.0,167336.0,203497.0,178691.0,1
2024-11-19 23:09:36.758000+00:00,-0.5228318,9.601201,-1.660619,,,,,,,,,,,1
2024-11-19 23:09:36.733000+00:00,,,,,,,,,,121828.0,167327.0,203484.0,178689.0,1
2024-11-19 23:09:36.752000+00:00,,,,,,,,,,121815.0,167331.0,203458.0,178679.0,1
2024-11-19 23:09:36.762000+00:00,,,,,,,,,,121815.0,167331.0,203458.0,178679.0,1
2024-11-19 23:09:36.757000+00:00,,,,,,,,,,121815.0,167331.0,203458.0,178679.0,1
2024-11-19 23:09:36.743000+00:00,,,,0.02321288,-0.037873644,-0.02565634,-20143.0,-2521.0,-3286.0,,,,,1
2024-11-19 23:09:36.742000+00:00,,,,,,,,,,121828.0,167327.0,203484.0,178689.0,1
2024-11-19 23:09:36.736000+00:00,-0.52522457,9.598808,-1.6594226,,,,,,,,,,,1
2024-11-19 23:09:36.737000+00:00,,,,,,,,,,121828.0,167327.0,203484.0,178689.0,1
2024-11-19 23:09:36.747000+00:00,-0.5324031,9.573684,-1.6642083,,,,,,,121828.0,167327.0,203484.0,178689.0,1
2024-11-19 23:09:36.807000+00:00,,,,,,,,,,121834.0,167341.0,203492.0,178678.0,1
2024-11-19 23:09:36.822000+00:00,,,,,,,,,,121834.0,167341.0,203492.0,178678.0,1
2024-11-19 23:09:36.824000+00:00,-0.49292147,9.583255,-1.625923,,,,,,,,,,,1
2024-11-19 23:09:36.827000+00:00,,,,,,,,,,121834.0,167341.0,203492.0,178678.0,1
2024-11-19 23:09:36.803000+00:00,-0.50727844,9.619148,-1.6498513,,,,,,,121834.0,167341.0,203492.0,178678.0,1
2024-11-19 23:09:36.817000+00:00,,,,,,,,,,121834.0,167341.0,203492.0,178678.0,1
2024-11-19 23:09:36.825000+00:00,,,,-0.004886922,-0.039095376,-0.017104227,-20190.0,-2514.0,-3343.0,,,,,1
2024-11-19 23:09:36.812000+00:00,,,,,,,,,,121834.0,167341.0,203492.0,178678.0,1
2024-11-19 23:09:36.813000+00:00,-0.47856456,9.602398,-1.6307087,,,,,,,,,,,1
2024-11-19 23:09:36.832000+00:00,,,,,,,,,,121771.0,167286.0,203451.0,178632.0,1
2024-11-19 23:09:36.848000+00:00,,,,,,,,,,121771.0,167286.0,203451.0,178632.0,1
2024-11-19 23:09:36.864000+00:00,,,,,,,,,,121771.0,167286.0,203451.0,178632.0,1
2024-11-19 23:09:36.853000+00:00,,,,,,,,,,121771.0,167286.0,203451.0,178632.0,1
2024-11-19 23:09:36.836000+00:00,-0.5024928,9.582059,-1.6187446,,,,,,,,,,,1
2024-11-19 23:09:36.859000+00:00,,,,,,,,,,121771.0,167286.0,203451.0,178632.0,1
2024-11-19 23:09:36.857000+00:00,-0.4953143,9.59163,-1.6534406,,,,,,,,,,,1
2024-11-19 23:09:36.838000+00:00,,,,,,,,,,121771.0,167286.0,203451.0,178632.0,1
2024-11-19 23:09:36.846000+00:00,-0.4989035,9.582059,-1.6187446,,,,,,,,,,,1
2024-11-19 23:09:36.868000+00:00,-0.5001,9.622737,-1.6821544,,,,,,,,,,,1
2024-11-19 23:09:36.866000+00:00,,,,0.02687807,-0.040317103,-0.015882496,-20183.0,-2498.0,-3370.0,,,,,1
2024-11-19 23:09:36.843000+00:00,,,,,,,,,,121771.0,167286.0,203451.0,178632.0,1
2024-11-19 23:09:36.884000+00:00,,,,,,,,,,121772.0,167299.0,203438.0,178636.0,1
2024-11-19 23:09:36.889000+00:00,,,,,,,,,,121772.0,167299.0,203438.0,178636.0,1
2024-11-19 23:09:36.874000+00:00,,,,,,,,,,121772.0,167299.0,203438.0,178636.0,1
2024-11-19 23:09:36.879000+00:00,-0.5024928,9.617951,-1.7024934,,,,,,,121772.0,167299.0,203438.0,178636.0,1
2024-11-19 23:09:36.899000+00:00,,,,,,,,,,121772.0,167299.0,203438.0,178636.0,1
2024-11-19 23:09:36.890000+00:00,-0.5144569,9.586844,-1.6893328,,,,,,,,,,,1
2024-11-19 23:09:36.901000+00:00,-0.5168497,9.594024,-1.680958,,,,,,,,,,,1
2024-11-19 23:09:36.904000+00:00,,,,,,,,,,121772.0,167299.0,203438.0,178636.0,1
2024-11-19 23:09:36.871000+00:00,,,,,,,,,,121772.0,167299.0,203438.0,178636.0,1
2024-11-19 23:09:36.894000+00:00,,,,,,,,,,121772.0,167299.0,203438.0,178636.0,1
2024-11-19 23:09:36.989000+00:00,,,,,,,,,,121823.0,167289.0,203470.0,178654.0,1
2024-11-19 23:09:36.974000+00:00,-0.49770713,9.616755,-1.6881365,,,,,,,121777.0,167296.0,203437.0,178638.0,1
2024-11-19 23:09:36.985000+00:00,-0.5012964,9.616755,-1.7084755,,,,,,,,,,,1
2024-11-19 23:09:36.947000+00:00,-0.4941179,9.572488,-1.6235303,,,,,,,121777.0,167296.0,203437.0,178638.0,1
2024-11-19 23:09:36.951000+00:00,,,,0.014660766,-0.042760566,-0.008552114,-20086.0,-2502.0,-3439.0,121777.0,167296.0,203437.0,178638.0,1
2024-11-19 23:09:36.984000+00:00,,,,,,,,,,121777.0,167296.0,203437.0,178638.0,1
2024-11-19 23:09:36.979000+00:00,,,,,,,,,,121777.0,167296.0,203437.0,178638.0,1
2024-11-19 23:09:36.999000+00:00,-0.5096713,9.594024,-1.7192432,,,,,,,121823.0,167289.0,203470.0,178654.0,1
2024-11-19 23:09:36.998000+00:00,,,,0.03543018,-0.040317103,-0.017104227,-20108.0,-2534.0,-3304.0,,,,,1
2024-11-19 23:09:37.046000+00:00,,,,,,,,,,121836.0,167329.0,203500.0,178689.0,1
2024-11-19 23:09:37.036000+00:00,,,,,,,,,,121836.0,167329.0,203500.0,178689.0,1
2024-11-19 23:09:37.033000+00:00,,,,-0.008552114,-0.037873644,-0.004886922,-20199.0,-2576.0,-3327.0,,,,,1
2024-11-19 23:09:37.029000+00:00,,,,,,,,,,121836.0,167329.0,203500.0,178689.0,1
2024-11-19 23:09:37.042000+00:00,-0.5036892,9.5964155,-1.6534406,,,,,,,,,,,1
2024-11-19 23:09:37.041000+00:00,,,,,,,,,,121836.0,167329.0,203500.0,178689.0,1
2024-11-19 23:09:37.056000+00:00,,,,,,,,,,121836.0,167329.0,203500.0,178689.0,1
2024-11-19 23:09:37.051000+00:00,,,,,,,,,,121836.0,167329.0,203500.0,178689.0,1
2024-11-19 23:09:37.053000+00:00,-0.5036892,9.56531,-1.6307087,,,,,,,,,,,1
2024-11-19 23:09:37.031000+00:00,-0.5324031,9.598808,-1.6953149,,,,,,,121836.0,167329.0,203500.0,178689.0,1
2024-11-19 23:09:37.168000+00:00,-0.5001,9.579666,-1.6642083,,,,,,,,,,,1
2024-11-19 23:09:37.179000+00:00,-0.48574302,9.56172,-1.6450658,,,,,,,121751.0,167218.0,203417.0,178533.0,1
2024-11-19 23:09:37.184000+00:00,,,,,,,,,,121751.0,167218.0,203417.0,178533.0,1
2024-11-19 23:09:37.159000+00:00,,,,,,,,,,121751.0,167218.0,203417.0,178533.0,1
2024-11-19 23:09:37.157000+00:00,-0.5048856,9.59163,-1.6797616,,,,,,,,,,,1
2024-11-19 23:09:37.164000+00:00,,,,,,,,,,121751.0,167218.0,203417.0,178533.0,1
2024-11-19 23:09:37.155000+00:00,,,,,,,,,,121751.0,167218.0,203417.0,178533.0,1
2024-11-19 23:09:37.169000+00:00,,,,,,,,,,121751.0,167218.0,203417.0,178533.0,1
2024-11-19 23:09:37.165000+00:00,,,,0.0036651916,-0.042760566,-0.012217305,-20181.0,-2514.0,-3317.0,,,,,1
2024-11-19 23:09:37.174000+00:00,,,,,,,,,,121751.0,167218.0,203417.0,178533.0,1
2024-11-19 23:09:37.209000+00:00,,,,,,,,,,121763.0,167201.0,203429.0,178505.0,1
2024-11-19 23:09:37.219000+00:00,,,,,,,,,,121763.0,167201.0,203429.0,178505.0,1
2024-11-19 23:09:37.214000+00:00,-0.4989035,9.604791,-1.7036898,,,,,,,121763.0,167201.0,203429.0,178505.0,1
2024-11-19 23:09:37.203000+00:00,-0.49292147,9.601201,-1.7001005,,,,,,,,,,,1
2024-11-19 23:09:37.204000+00:00,,,,,,,,,,121763.0,167201.0,203429.0,178505.0,1
2024-11-19 23:09:37.192000+00:00,-0.5048856,9.580863,-1.6869401,,,,,,,,,,,1
2024-11-19 23:09:37.199000+00:00,,,,,,,,,,121763.0,167201.0,203429.0,178505.0,1
2024-11-19 23:09:37.206000+00:00,,,,0.030543262,-0.04153884,-0.019547688,-20185.0,-2498.0,-3325.0,,,,,1
2024-11-19 23:09:37.190000+00:00,,,,,,,,,,121763.0,167201.0,203429.0,178505.0,1
2024-11-19 23:09:37.194000+00:00,,,,,,,,,,121763.0,167201.0,203429.0,178505.0,1
2024-11-19 23:09:37.225000+00:00,-0.5096713,9.601201,-1.7120647,,,,,,,,,,,1
2024-11-19 23:09:37.254000+00:00,,,,,,,,,,121817.0,167182.0,203494.0,178496.0,1
2024-11-19 23:09:37.239000+00:00,,,,,,,,,,121817.0,167182.0,203494.0,178496.0,1
2024-11-19 23:09:37.247000+00:00,-0.52043897,9.600005,-1.7300109,0.015882496,-0.040317103,-0.017104227,-20123.0,-2507.0,-3308.0,,,,,1
2024-11-19 23:09:37.236000+00:00,-0.5120641,9.594024,-1.7228324,,,,,,,,,,,1
2024-11-19 23:09:37.249000+00:00,,,,,,,,,,121817.0,167182.0,203494.0,178496.0,1
2024-11-19 23:09:37.234000+00:00,,,,,,,,,,121817.0,167182.0,203494.0,178496.0,1
2024-11-19 23:09:37.229000+00:00,,,,,,,,,,121817.0,167182.0,203494.0,178496.0,1
2024-11-19 23:09:37.244000+00:00,,,,,,,,,,121817.0,167182.0,203494.0,178496.0,1
2024-11-19 23:09:37.271000+00:00,,,,,,,,,,121796.0,167187.0,203484.0,178504.0,1
2024-11-19 23:09:37.280000+00:00,-0.4941179,9.605987,-1.6821544,,,,,,,,,,,1
2024-11-19 23:09:37.281000+00:00,,,,,,,,,,121796.0,167187.0,203484.0,178504.0,1
2024-11-19 23:09:37.276000+00:00,,,,,,,,,,121796.0,167187.0,203484.0,178504.0,1
2024-11-19 23:09:37.266000+00:00,,,,,,,,,,121817.0,167182.0,203494.0,178496.0,1
2024-11-19 23:09:37.269000+00:00,-0.5168497,9.588041,-1.6737796,,,,,,,,,,,1
2024-11-19 23:09:37.286000+00:00,,,,,,,,,,121796.0,167187.0,203484.0,178504.0,1
2024-11-19 23:09:37.288000+00:00,,,,0.0012217305,-0.042760566,-0.007330383,-20198.0,-2523.0,-3297.0,,,,,1
2024-11-19 23:09:37.259000+00:00,-0.5036892,9.572488,-1.680958,,,,,,,,,,,1
2024-11-19 23:09:37.261000+00:00,,,,,,,,,,121817.0,167182.0,203494.0,178496.0,1
2024-11-19 23:09:37.305000+00:00,,,,,,,,,,121796.0,167187.0,203484.0,178504.0,1
2024-11-19 23:09:37.313000+00:00,-0.49292147,9.584452,-1.6522442,,,,,,,,,,,1
2024-11-19 23:09:37.315000+00:00,,,,,,,,,,121770.0,167166.0,203455.0,178494.0,1
2024-11-19 23:09:37.302000+00:00,-0.52163535,9.56172,-1.6713867,,,,,,,,,,,1
2024-11-19 23:09:37.320000+00:00,,,,,,,,,,121770.0,167166.0,203455.0,178494.0,1
2024-11-19 23:09:37.300000+00:00,,,,,,,,,,121796.0,167187.0,203484.0,178504.0,1
2024-11-19 23:09:37.310000+00:00,,,,,,,,,,121770.0,167166.0,203455.0,178494.0,1
2024-11-19 23:09:37.297000+00:00,-0.52163535,9.56172,-1.6713867,,,,,,,121796.0,167187.0,203484.0,178504.0,1
2024-11-19 23:09:37.324000+00:00,-0.49052867,9.584452,-1.6570299,,,,,,,,,,,1
2024-11-19 23:09:37.325000+00:00,,,,,,,,,,121770.0,167166.0,203455.0,178494.0,1
2024-11-19 23:09:37.351000+00:00,,,,,,,,,,121806.0,167151.0,203477.0,178506.0,1
2024-11-19 23:09:37.361000+00:00,,,,,,,,,,121806.0,167151.0,203477.0,178506.0,1
2024-11-19 23:09:37.346000+00:00,-0.4941179,9.585648,-1.6881365,,,,,,,121806.0,167151.0,203477.0,178506.0,1
2024-11-19 23:09:37.336000+00:00,,,,,,,,,,121770.0,167166.0,203455.0,178494.0,1
2024-11-19 23:09:37.341000+00:00,,,,,,,,,,121770.0,167166.0,203455.0,178494.0,1
2024-11-19 23:09:37.356000+00:00,,,,,,,,,,121806.0,167151.0,203477.0,178506.0,1
2024-11-19 23:09:37.335000+00:00,-0.5168497,9.5760765,-1.6785651,,,,,,,,,,,1
2024-11-19 23:09:37.330000+00:00,,,,0.018325957,-0.04153884,-0.02321288,-20175.0,-2511.0,-3298.0,,,,,1
2024-11-19 23:09:37.331000+00:00,,,,,,,,,,121770.0,167166.0,203455.0,178494.0,1
2024-11-19 23:09:37.357000+00:00,-0.49770713,9.5760765,-1.715654,,,,,,,,,,,1
2024-11-19 23:09:37.431000+00:00,,,,,,,,,,121746.0,167158.0,203412.0,178470.0,1
2024-11-19 23:09:37.416000+00:00,,,,,,,,,,121798.0,167159.0,203483.0,178486.0,1
2024-11-19 23:09:37.402000+00:00,-0.5228318,9.607183,-1.7431715,,,,,,,121798.0,167159.0,203483.0,178486.0,1
2024-11-19 23:09:37.423000+00:00,-0.52522457,9.560523,-1.6474586,,,,,,,,,,,1
2024-11-19 23:09:37.406000+00:00,,,,,,,,,,121798.0,167159.0,203483.0,178486.0,1
2024-11-19 23:09:37.412000+00:00,-0.52163535,9.572488,-1.6821544,,,,,,,,,,,1
2024-11-19 23:09:37.421000+00:00,,,,,,,,,,121798.0,167159.0,203483.0,178486.0,1
2024-11-19 23:09:37.411000+00:00,,,,-0.032986723,-0.040317103,-0.0061086523,-20170.0,-2586.0,-3298.0,121798.0,167159.0,203483.0,178486.0,1
2024-11-19 23:09:37.426000+00:00,,,,,,,,,,121746.0,167158.0,203412.0,178470.0,1
2024-11-19 23:09:37.435000+00:00,-0.5156533,9.546166,-1.6163518,,,,,,,,,,,1
2024-11-19 23:09:37.445000+00:00,-0.50727844,9.56172,-1.6247267,,,,,,,,,,,1
2024-11-19 23:09:37.447000+00:00,,,,,,,,,,121746.0,167158.0,203412.0,178470.0,1
2024-11-19 23:09:37.442000+00:00,,,,,,,,,,121746.0,167158.0,203412.0,178470.0,1
2024-11-19 23:09:37.467000+00:00,-0.49292147,9.602398,-1.7264217,,,,,,,,,,,1
2024-11-19 23:09:37.463000+00:00,,,,,,,,,,121746.0,167158.0,203412.0,178470.0,1
2024-11-19 23:09:37.452000+00:00,,,,0.019547688,-0.040317103,-0.014660766,-20202.0,-2478.0,-3253.0,121746.0,167158.0,203412.0,178470.0,1
2024-11-19 23:09:37.458000+00:00,,,,,,,,,,121746.0,167158.0,203412.0,178470.0,1
2024-11-19 23:09:37.456000+00:00,-0.4965107,9.570095,-1.6701903,,,,,,,,,,,1
2024-11-19 23:09:37.437000+00:00,,,,,,,,,,121746.0,167158.0,203412.0,178470.0,1
2024-11-19 23:09:37.483000+00:00,,,,,,,,,,121776.0,167149.0,203417.0,178465.0,1
2024-11-19 23:09:37.470000+00:00,,,,,,,,,,121776.0,167149.0,203417.0,178465.0,1
2024-11-19 23:09:37.478000+00:00,-0.49770713,9.614362,-1.7491535,,,,,,,121776.0,167149.0,203417.0,178465.0,1
2024-11-19 23:09:37.493000+00:00,,,,0.028099801,-0.042760566,-0.014660766,-20137.0,-2528.0,-3301.0,121776.0,167149.0,203417.0,178465.0,1
2024-11-19 23:09:37.489000+00:00,-0.50727844,9.610773,-1.7467606,,,,,,,,,,,1
2024-11-19 23:09:37.498000+00:00,,,,,,,,,,121776.0,167149.0,203417.0,178465.0,1
2024-11-19 23:09:37.473000+00:00,,,,,,,,,,121776.0,167149.0,203417.0,178465.0,1
2024-11-19 23:09:37.488000+00:00,,,,,,,,,,121776.0,167149.0,203417.0,178465.0,1
2024-11-19 23:09:37.500000+00:00,-0.5012964,9.607183,-1.7527426,,,,,,,,,,,1
2024-11-19 23:09:37.511000+00:00,-0.52163535,9.585648,-1.7347965,,,,,,,121726.0,167136.0,203413.0,178456.0,1
2024-11-19 23:09:37.521000+00:00,,,,,,,,,,121726.0,167136.0,203413.0,178456.0,1
2024-11-19 23:09:37.509000+00:00,,,,,,,,,,121726.0,167136.0,203413.0,178456.0,1
2024-11-19 23:09:37.531000+00:00,,,,,,,,,,121726.0,167136.0,203413.0,178456.0,1
2024-11-19 23:09:37.516000+00:00,,,,,,,,,,121726.0,167136.0,203413.0,178456.0,1
2024-11-19 23:09:37.522000+00:00,-0.49770713,9.613166,-1.7084755,,,,,,,,,,,1
2024-11-19 23:09:37.533000+00:00,-0.5084749,9.542577,-1.6701903,,,,,,,,,,,1
2024-11-19 23:09:37.536000+00:00,,,,,,,,,,121726.0,167136.0,203413.0,178456.0,1
2024-11-19 23:09:37.534000+00:00,,,,-0.007330383,-0.04153884,-0.015882496,-20125.0,-2582.0,-3237.0,,,,,1
2024-11-19 23:09:37.526000+00:00,,,,,,,,,,121726.0,167136.0,203413.0,178456.0,1
2024-11-19 23:09:37.616000+00:00,,,,-0.0012217305,-0.043982297,-0.014660766,-20216.0,-2475.0,-3303.0,,,,,1
2024-11-19 23:09:37.598000+00:00,-0.52163535,9.586844,-1.7443678,,,,,,,,,,,1
2024-11-19 23:09:37.605000+00:00,,,,,,,,,,121753.0,167163.0,203403.0,178504.0,1
2024-11-19 23:09:37.625000+00:00,,,,,,,,,,121753.0,167163.0,203403.0,178504.0,1
2024-11-19 23:09:37.620000+00:00,,,,,,,,,,121753.0,167163.0,203403.0,178504.0,1
2024-11-19 23:09:37.615000+00:00,,,,,,,,,,121753.0,167163.0,203403.0,178504.0,1
2024-11-19 23:09:37.622000+00:00,-0.5168497,9.566505,-1.6797616,,,,,,,,,,,1
2024-11-19 23:09:37.610000+00:00,,,,,,,,,,121753.0,167163.0,203403.0,178504.0,1
2024-11-19 23:09:37.600000+00:00,-0.52163535,9.586844,-1.7443678,,,,,,,121753.0,167163.0,203403.0,178504.0,1
2024-11-19 23:09:37.611000+00:00,-0.5084749,9.577272,-1.707279,,,,,,,,,,,1
2024-11-19 23:09:37.633000+00:00,-0.5048856,9.5760765,-1.6905292,,,,,,,,,,,1
2024-11-19 23:09:37.650000+00:00,,,,,,,,,,121694.0,167170.0,203370.0,178516.0,1
2024-11-19 23:09:37.657000+00:00,,,,0.007330383,-0.040317103,-0.010995574,-20136.0,-2593.0,-3253.0,,,,,1
2024-11-19 23:09:37.645000+00:00,,,,,,,,,,121694.0,167170.0,203370.0,178516.0,1
2024-11-19 23:09:37.640000+00:00,,,,,,,,,,121694.0,167170.0,203370.0,178516.0,1
2024-11-19 23:09:37.644000+00:00,-0.5036892,9.57847,-1.707279,,,,,,,,,,,1
2024-11-19 23:09:37.655000+00:00,-0.5144569,9.579666,-1.7252252,,,,,,,121694.0,167170.0,203370.0,178516.0,1
2024-11-19 23:09:37.635000+00:00,,,,,,,,,,121694.0,167170.0,203370.0,178516.0,1
2024-11-19 23:09:37.660000+00:00,,,,,,,,,,121694.0,167170.0,203370.0,178516.0,1
2024-11-19 23:09:37.631000+00:00,,,,,,,,,,121694.0,167170.0,203370.0,178516.0,1
2024-11-19 23:09:37.733000+00:00,,,,,,,,,,121723.0,167201.0,203420.0,178562.0,1
2024-11-19 23:09:37.738000+00:00,,,,,,,,,,121723.0,167201.0,203420.0,178562.0,1
2024-11-19 23:09:37.743000+00:00,,,,,,,,,,121723.0,167201.0,203420.0,178562.0,1
2024-11-19 23:09:37.728000+00:00,,,,,,,,,,121723.0,167201.0,203420.0,178562.0,1
2024-11-19 23:09:37.719000+00:00,-0.52522457,9.536595,-1.6929221,,,,,,,121723.0,167201.0,203420.0,178562.0,1
2024-11-19 23:09:37.739000+00:00,,,,0.0,-0.040317103,-0.012217305,-20183.0,-2536.0,-3314.0,,,,,1
2024-11-19 23:09:37.734000+00:00,-0.5096713,9.584452,-1.6761724,,,,,,,,,,,1
2024-11-19 23:09:37.723000+00:00,-0.52522457,9.536595,-1.6929221,,,,,,,121723.0,167201.0,203420.0,178562.0,1
2024-11-19 23:09:37.745000+00:00,-0.5144569,9.603595,-1.7048862,,,,,,,,,,,1
2024-11-19 23:09:37.756000+00:00,-0.52043897,9.588041,-1.709672,,,,,,,,,,,1
2024-11-19 23:09:37.769000+00:00,,,,,,,,,,121727.0,167247.0,203454.0,178610.0,1
2024-11-19 23:09:37.753000+00:00,,,,,,,,,,121727.0,167247.0,203454.0,178610.0,1
2024-11-19 23:09:37.767000+00:00,-0.5192425,9.594024,-1.7204397,,,,,,,,,,,1
2024-11-19 23:09:37.780000+00:00,,,,0.0,-0.042760566,-0.0061086523,-20162.0,-2589.0,-3290.0,121727.0,167247.0,203454.0,178610.0,1
2024-11-19 23:09:37.749000+00:00,,,,,,,,,,121727.0,167247.0,203454.0,178610.0,1
2024-11-19 23:09:37.774000+00:00,,,,,,,,,,121727.0,167247.0,203454.0,178610.0,1
2024-11-19 23:09:37.778000+00:00,-0.5084749,9.585648,-1.7084755,,,,,,,,,,,1
2024-11-19 23:09:37.758000+00:00,,,,,,,,,,121727.0,167247.0,203454.0,178610.0,1
2024-11-19 23:09:37.763000+00:00,,,,,,,,,,121727.0,167247.0,203454.0,178610.0,1
2024-11-19 23:09:37.800000+00:00,-0.47736815,9.584452,-1.709672,,,,,,,121672.0,167240.0,203394.0,178624.0,1
2024-11-19 23:09:37.820000+00:00,,,,,,,,,,121672.0,167240.0,203394.0,178624.0,1
2024-11-19 23:09:37.810000+00:00,,,,,,,,,,121672.0,167240.0,203394.0,178624.0,1
2024-11-19 23:09:37.815000+00:00,,,,,,,,,,121672.0,167240.0,203394.0,178624.0,1
2024-11-19 23:09:37.789000+00:00,-0.5001,9.582059,-1.7060826,,,,,,,,,,,1
2024-11-19 23:09:37.786000+00:00,,,,,,,,,,121672.0,167240.0,203394.0,178624.0,1
2024-11-19 23:09:37.805000+00:00,,,,,,,,,,121672.0,167240.0,203394.0,178624.0,1
2024-11-19 23:09:37.795000+00:00,,,,,,,,,,121672.0,167240.0,203394.0,178624.0,1
2024-11-19 23:09:37.790000+00:00,,,,,,,,,,121672.0,167240.0,203394.0,178624.0,1
2024-11-19 23:09:37.811000+00:00,-0.5012964,9.597612,-1.7192432,,,,,,,,,,,1
2024-11-19 23:09:37.850000+00:00,,,,,,,,,,121637.0,167216.0,203306.0,178557.0,1
2024-11-19 23:09:37.835000+00:00,,,,,,,,,,121637.0,167216.0,203306.0,178557.0,1
2024-11-19 23:09:37.855000+00:00,,,,,,,,,,121637.0,167216.0,203306.0,178557.0,1
2024-11-19 23:09:37.834000+00:00,-0.5168497,9.572488,-1.7336001,,,,,,,,,,,1
2024-11-19 23:09:37.845000+00:00,-0.5335995,9.59163,-1.7240288,,,,,,,121637.0,167216.0,203306.0,178557.0,1
2024-11-19 23:09:37.840000+00:00,,,,,,,,,,121637.0,167216.0,203306.0,178557.0,1
2024-11-19 23:09:37.822000+00:00,,,,0.0036651916,-0.04153884,-0.0061086523,-20148.0,-2579.0,-3299.0,,,,,1
2024-11-19 23:09:37.823000+00:00,-0.49292147,9.5760765,-1.741975,,,,,,,,,,,1
2024-11-19 23:09:37.830000+00:00,,,,,,,,,,121637.0,167216.0,203306.0,178557.0,1
2024-11-19 23:09:37.825000+00:00,,,,,,,,,,121637.0,167216.0,203306.0,178557.0,1
2024-11-19 23:09:37.870000+00:00,,,,,,,,,,121654.0,167153.0,203322.0,178496.0,1
2024-11-19 23:09:37.857000+00:00,-0.5228318,9.583255,-1.7347965,,,,,,,,,,,1
2024-11-19 23:09:37.865000+00:00,,,,,,,,,,121654.0,167153.0,203322.0,178496.0,1
2024-11-19 23:09:37.860000+00:00,,,,,,,,,,121637.0,167216.0,203306.0,178557.0,1
2024-11-19 23:09:37.875000+00:00,,,,,,,,,,121654.0,167153.0,203322.0,178496.0,1
2024-11-19 23:09:37.878000+00:00,-0.5024928,9.600005,-1.7048862,,,,,,,,,,,1
2024-11-19 23:09:37.867000+00:00,-0.5156533,9.588041,-1.7252252,,,,,,,,,,,1
2024-11-19 23:09:37.862000+00:00,,,,0.0012217305,-0.04153884,-0.012217305,-20181.0,-2511.0,-3330.0,,,,,1
2024-11-19 23:09:37.880000+00:00,,,,,,,,,,121654.0,167153.0,203322.0,178496.0,1
2024-11-19 23:09:37.885000+00:00,,,,,,,,,,121654.0,167153.0,203322.0,178496.0,1
2024-11-19 23:09:37.889000+00:00,-0.5132605,9.567701,-1.7024934,,,,,,,,,,,1
2024-11-19 23:09:37.911000+00:00,-0.5096713,9.573684,-1.6869401,,,,,,,,,,,1
2024-11-19 23:09:37.903000+00:00,,,,0.0061086523,-0.04153884,-0.013439035,-20162.0,-2555.0,-3283.0,121654.0,167153.0,203322.0,178496.0,1
2024-11-19 23:09:37.913000+00:00,,,,,,,,,,121667.0,167116.0,203335.0,178430.0,1
2024-11-19 23:09:37.918000+00:00,,,,,,,,,,121667.0,167116.0,203335.0,178430.0,1
2024-11-19 23:09:37.924000+00:00,,,,,,,,,,121667.0,167116.0,203335.0,178430.0,1
2024-11-19 23:09:37.908000+00:00,,,,,,,,,,121667.0,167116.0,203335.0,178430.0,1
2024-11-19 23:09:37.900000+00:00,-0.5084749,9.566505,-1.6917257,,,,,,,,,,,1
2024-11-19 23:09:37.898000+00:00,,,,,,,,,,121654.0,167153.0,203322.0,178496.0,1
2024-11-19 23:09:37.922000+00:00,-0.50608206,9.588041,-1.7024934,,,,,,,,,,,1
2024-11-19 23:09:37.934000+00:00,,,,,,,,,,121667.0,167116.0,203335.0,178430.0,1
2024-11-19 23:09:37.939000+00:00,,,,,,,,,,121667.0,167116.0,203335.0,178430.0,1
2024-11-19 23:09:37.930000+00:00,,,,,,,,,,121667.0,167116.0,203335.0,178430.0,1
2024-11-19 23:09:37.973000+00:00,-0.5192425,9.56172,-1.7192432,,,,,,,121686.0,167090.0,203382.0,178409.0,1
2024-11-19 23:09:37.952000+00:00,,,,,,,,,,,,,,1
2024-11-19 23:09:37.933000+00:00,-0.5036892,9.598808,-1.7240288,,,,,,,,,,,1
2024-11-19 23:09:37.949000+00:00,,,,,,,,,,121686.0,167090.0,203382.0,178409.0,1
2024-11-19 23:09:37.944000+00:00,-0.5192425,9.579666,-1.7359929,0.018325957,-0.040317103,-0.014660766,-20081.0,-2564.0,-3313.0,121686.0,167090.0,203382.0,178409.0,1
2024-11-19 23:09:37.988000+00:00,,,,,,,,,,121725.0,167088.0,203438.0,178427.0,1
2024-11-19 23:09:37.990000+00:00,-0.52043897,9.559327,-1.7443678,0.009773844,-0.040317103,-0.012217305,-20128.0,-2520.0,-3294.0,121725.0,167088.0,203438.0,178427.0,1
2024-11-19 23:09:37.995000+00:00,,,,,,,,,,121725.0,167088.0,203438.0,178427.0,1
2024-11-19 23:09:38.029000+00:00,,,,,,,,,,121712.0,167094.0,203434.0,178437.0,1
2024-11-19 23:09:38.044000+00:00,,,,,,,,,,121712.0,167094.0,203434.0,178437.0,1
2024-11-19 23:09:38.030000+00:00,-0.5132605,9.572488,-1.7324038,,,,,,,,,,,1
2024-11-19 23:09:38.041000+00:00,-0.49770713,9.594024,-1.7288145,,,,,,,,,,,1
2024-11-19 23:09:38.024000+00:00,,,,,,,,,,121712.0,167094.0,203434.0,178437.0,1
2024-11-19 23:09:38.031000+00:00,,,,0.007330383,-0.043982297,-0.009773844,-20098.0,-2525.0,-3313.0,,,,,1
2024-11-19 23:09:38.018000+00:00,,,,,,,,,,121725.0,167088.0,203438.0,178427.0,1
2024-11-19 23:09:38.019000+00:00,-0.5084749,9.577272,-1.7371894,,,,,,,121725.0,167088.0,203438.0,178427.0,1
2024-11-19 23:09:38.034000+00:00,,,,,,,,,,121712.0,167094.0,203434.0,178437.0,1
2024-11-19 23:09:38.039000+00:00,,,,,,,,,,121712.0,167094.0,203434.0,178437.0,1
2024-11-19 23:09:38.063000+00:00,-0.5144569,9.579666,-1.7264217,,,,,,,,,,,1
2024-11-19 23:09:38.072000+00:00,,,,0.012217305,-0.040317103,-0.014660766,-20157.0,-2555.0,-3279.0,,,,,1
2024-11-19 23:09:38.054000+00:00,,,,,,,,,,121712.0,167094.0,203434.0,178437.0,1
2024-11-19 23:09:38.079000+00:00,,,,,,,,,,121743.0,167096.0,203456.0,178453.0,1
2024-11-19 23:09:38.052000+00:00,-0.5120641,9.566505,-1.7204397,,,,,,,,,,,1
2024-11-19 23:09:38.050000+00:00,,,,,,,,,,121712.0,167094.0,203434.0,178437.0,1
2024-11-19 23:09:38.074000+00:00,-0.526421,9.59163,-1.7324038,,,,,,,121743.0,167096.0,203456.0,178453.0,1
2024-11-19 23:09:38.064000+00:00,,,,,,,,,,121743.0,167096.0,203456.0,178453.0,1
2024-11-19 23:09:38.069000+00:00,,,,,,,,,,121743.0,167096.0,203456.0,178453.0,1
2024-11-19 23:09:38.059000+00:00,,,,,,,,,,121712.0,167094.0,203434.0,178437.0,1
2024-11-19 23:09:38.130000+00:00,,,,,,,,,,121747.0,167112.0,203488.0,178468.0,1
2024-11-19 23:09:38.135000+00:00,,,,,,,,,,121747.0,167112.0,203488.0,178468.0,1
2024-11-19 23:09:38.121000+00:00,-0.50727844,9.5760765,-1.7060826,,,,,,,,,,,1
2024-11-19 23:09:38.107000+00:00,,,,,,,,,,121747.0,167112.0,203488.0,178468.0,1
2024-11-19 23:09:38.113000+00:00,,,,-0.002443461,-0.040317103,-0.009773844,-20151.0,-2509.0,-3276.0,,,,,1
2024-11-19 23:09:38.125000+00:00,,,,,,,,,,121747.0,167112.0,203488.0,178468.0,1
2024-11-19 23:09:38.120000+00:00,,,,,,,,,,121747.0,167112.0,203488.0,178468.0,1
2024-11-19 23:09:38.115000+00:00,,,,,,,,,,121747.0,167112.0,203488.0,178468.0,1
2024-11-19 23:09:38.132000+00:00,-0.48574302,9.559327,-1.6869401,,,,,,,,,,,1
2024-11-19 23:09:38.110000+00:00,-0.5300102,9.59163,-1.7383858,,,,,,,121747.0,167112.0,203488.0,178468.0,1
2024-11-19 23:09:38.156000+00:00,,,,,,,,,,121733.0,167117.0,203494.0,178460.0,1
2024-11-19 23:09:38.145000+00:00,,,,,,,,,,121733.0,167117.0,203494.0,178460.0,1
2024-11-19 23:09:38.171000+00:00,,,,,,,,,,121733.0,167117.0,203494.0,178460.0,1
2024-11-19 23:09:38.166000+00:00,,,,,,,,,,121733.0,167117.0,203494.0,178460.0,1
2024-11-19 23:09:38.150000+00:00,,,,,,,,,,121733.0,167117.0,203494.0,178460.0,1
2024-11-19 23:09:38.165000+00:00,-0.48335022,9.582059,-1.7192432,,,,,,,,,,,1
2024-11-19 23:09:38.141000+00:00,,,,,,,,,,121747.0,167112.0,203488.0,178468.0,1
2024-11-19 23:09:38.143000+00:00,-0.49172506,9.56531,-1.6917257,,,,,,,,,,,1
2024-11-19 23:09:38.154000+00:00,-0.47856456,9.562917,-1.7084755,0.0036651916,-0.040317103,-0.012217305,-20155.0,-2485.0,-3389.0,,,,,1
2024-11-19 23:09:38.161000+00:00,,,,,,,,,,121733.0,167117.0,203494.0,178460.0,1
2024-11-19 23:09:38.181000+00:00,,,,,,,,,,121733.0,167117.0,203494.0,178460.0,1
2024-11-19 23:09:38.195000+00:00,,,,0.02687807,-0.040317103,-0.02076942,-20145.0,-2558.0,-3268.0,,,,,1
2024-11-19 23:09:38.196000+00:00,,,,,,,,,,121786.0,167107.0,203507.0,178485.0,1
2024-11-19 23:09:38.188000+00:00,-0.5168497,9.566505,-1.7898315,,,,,,,,,,,1
2024-11-19 23:09:38.191000+00:00,,,,,,,,,,121786.0,167107.0,203507.0,178485.0,1
2024-11-19 23:09:38.186000+00:00,,,,,,,,,,121786.0,167107.0,203507.0,178485.0,1
2024-11-19 23:09:38.201000+00:00,,,,,,,,,,121786.0,167107.0,203507.0,178485.0,1
2024-11-19 23:09:38.206000+00:00,,,,,,,,,,121786.0,167107.0,203507.0,178485.0,1
2024-11-19 23:09:38.177000+00:00,-0.4965107,9.577272,-1.7180468,,,,,,,121733.0,167117.0,203494.0,178460.0,1
2024-11-19 23:09:38.199000+00:00,-0.5359923,9.609576,-1.802992,,,,,,,,,,,1
2024-11-19 23:09:38.223000+00:00,,,,,,,,,,121746.0,167108.0,203459.0,178476.0,1
2024-11-19 23:09:38.211000+00:00,-0.53479594,9.603595,-1.7982063,,,,,,,,,,,1
2024-11-19 23:09:38.238000+00:00,,,,,,,,,,121746.0,167108.0,203459.0,178476.0,1
2024-11-19 23:09:38.233000+00:00,,,,,,,,,,121746.0,167108.0,203459.0,178476.0,1
2024-11-19 23:09:38.218000+00:00,,,,,,,,,,121786.0,167107.0,203507.0,178485.0,1
2024-11-19 23:09:38.213000+00:00,,,,,,,,,,121786.0,167107.0,203507.0,178485.0,1
2024-11-19 23:09:38.236000+00:00,,,,-0.034208454,-0.040317103,-0.002443461,-20194.0,-2540.0,-3245.0,,,,,1
2024-11-19 23:09:38.232000+00:00,-0.53958154,9.598808,-1.7706888,,,,,,,,,,,1
2024-11-19 23:09:38.228000+00:00,,,,,,,,,,121746.0,167108.0,203459.0,178476.0,1
2024-11-19 23:09:38.221000+00:00,-0.53958154,9.602398,-1.7934207,,,,,,,,,,,1
2024-11-19 23:09:38.260000+00:00,-0.5036892,9.541381,-1.6498513,,,,,,,121749.0,167104.0,203472.0,178498.0,1
2024-11-19 23:09:38.258000+00:00,-0.5036892,9.541381,-1.6498513,,,,,,,121746.0,167108.0,203459.0,178476.0,1
2024-11-19 23:09:38.277000+00:00,,,,0.002443461,-0.040317103,-0.010995574,-20100.0,-2553.0,-3365.0,,,,,1
2024-11-19 23:09:38.280000+00:00,,,,,,,,,,121749.0,167104.0,203472.0,178498.0,1
2024-11-19 23:09:38.282000+00:00,-0.49292147,9.55813,-1.6761724,,,,,,,,,,,1
2024-11-19 23:09:38.270000+00:00,,,,,,,,,,121749.0,167104.0,203472.0,178498.0,1
2024-11-19 23:09:38.271000+00:00,-0.49172506,9.554542,-1.6510478,,,,,,,,,,,1
2024-11-19 23:09:38.275000+00:00,,,,,,,,,,121749.0,167104.0,203472.0,178498.0,1
2024-11-19 23:09:38.265000+00:00,,,,,,,,,,121749.0,167104.0,203472.0,178498.0,1
2024-11-19 23:09:38.351000+00:00,,,,,,,,,,121759.0,167147.0,203488.0,178559.0,1
2024-11-19 23:09:38.356000+00:00,,,,,,,,,,121759.0,167147.0,203488.0,178559.0,1
2024-11-19 23:09:38.336000+00:00,,,,,,,,,,121750.0,167124.0,203487.0,178516.0,1
2024-11-19 23:09:38.326000+00:00,-0.50727844,9.607183,-1.762314,,,,,,,121750.0,167124.0,203487.0,178516.0,1
2024-11-19 23:09:38.346000+00:00,,,,,,,,,,121759.0,167147.0,203488.0,178559.0,1
2024-11-19 23:09:38.331000+00:00,,,,,,,,,,121750.0,167124.0,203487.0,178516.0,1
2024-11-19 23:09:38.322000+00:00,,,,,,,,,,121750.0,167124.0,203487.0,178516.0,1
2024-11-19 23:09:38.337000+00:00,-0.5132605,9.584452,-1.7347965,,,,,,,,,,,1
2024-11-19 23:09:38.341000+00:00,,,,,,,,,,121750.0,167124.0,203487.0,178516.0,1
2024-11-19 23:09:38.348000+00:00,-0.526421,9.580863,-1.7192432,,,,,,,,,,,1
2024-11-19 23:09:38.381000+00:00,-0.5443672,9.608379,-1.7024934,,,,,,,,,,,1
2024-11-19 23:09:38.382000+00:00,,,,,,,,,,121767.0,167178.0,203489.0,178605.0,1
2024-11-19 23:09:38.363000+00:00,,,,,,,,,,121759.0,167147.0,203488.0,178559.0,1
2024-11-19 23:09:38.387000+00:00,,,,,,,,,,121767.0,167178.0,203489.0,178605.0,1
2024-11-19 23:09:38.360000+00:00,-0.52522457,9.584452,-1.6977078,-0.010995574,-0.039095376,-0.019547688,-20154.0,-2575.0,-3309.0,,,,,1
2024-11-19 23:09:38.377000+00:00,,,,,,,,,,121759.0,167147.0,203488.0,178559.0,1
2024-11-19 23:09:38.367000+00:00,,,,,,,,,,121759.0,167147.0,203488.0,178559.0,1
2024-11-19 23:09:38.370000+00:00,-0.5443672,9.516256,-1.6869401,,,,,,,,,,,1
2024-11-19 23:09:38.372000+00:00,,,,,,,,,,121759.0,167147.0,203488.0,178559.0,1
2024-11-19 23:09:38.443000+00:00,-0.4953143,9.583255,-1.7814566,,,,,,,,,,,1
2024-11-19 23:09:38.455000+00:00,,,,,,,,,,121760.0,167183.0,203512.0,178614.0,1
2024-11-19 23:09:38.460000+00:00,,,,,,,,,,121760.0,167183.0,203512.0,178614.0,1
2024-11-19 23:09:38.451000+00:00,,,,0.013439035,-0.04153884,-0.010995574,-20174.0,-2599.0,-3308.0,,,,,1
2024-11-19 23:09:38.454000+00:00,-0.5001,9.586844,-1.7754745,,,,,,,,,,,1
2024-11-19 23:09:38.470000+00:00,,,,,,,,,,121749.0,167210.0,203517.0,178658.0,1
2024-11-19 23:09:38.465000+00:00,-0.5168497,9.577272,-1.7527426,,,,,,,121749.0,167210.0,203517.0,178658.0,1
2024-11-19 23:09:38.445000+00:00,,,,,,,,,,121760.0,167183.0,203512.0,178614.0,1
2024-11-19 23:09:38.450000+00:00,,,,,,,,,,121760.0,167183.0,203512.0,178614.0,1
2024-11-19 23:09:38.441000+00:00,,,,,,,,,,121760.0,167183.0,203512.0,178614.0,1
2024-11-19 23:09:38.520000+00:00,-0.5335995,9.610773,-1.7240288,,,,,,,,,,,1
2024-11-19 23:09:38.522000+00:00,,,,,,,,,,121770.0,167245.0,203521.0,178689.0,1
2024-11-19 23:09:38.531000+00:00,-0.52881384,9.511471,-1.6845472,,,,,,,,,,,1
2024-11-19 23:09:38.533000+00:00,,,,-0.008552114,-0.037873644,-0.013439035,-20159.0,-2597.0,-3323.0,,,,,1
2024-11-19 23:09:38.537000+00:00,,,,,,,,,,121770.0,167245.0,203521.0,178689.0,1
2024-11-19 23:09:38.517000+00:00,,,,,,,,,,121770.0,167245.0,203521.0,178689.0,1
2024-11-19 23:09:38.510000+00:00,-0.53838515,9.5760765,-1.7240288,,,,,,,,,,,1
2024-11-19 23:09:38.532000+00:00,,,,,,,,,,121770.0,167245.0,203521.0,178689.0,1
2024-11-19 23:09:38.527000+00:00,,,,,,,,,,121770.0,167245.0,203521.0,178689.0,1
2024-11-19 23:09:38.512000+00:00,,,,,,,,,,121770.0,167245.0,203521.0,178689.0,1
2024-11-19 23:09:38.567000+00:00,,,,,,,,,,121782.0,167273.0,203558.0,178730.0,1
2024-11-19 23:09:38.574000+00:00,,,,0.028099801,-0.04153884,-0.012217305,-20194.0,-2554.0,-3277.0,,,,,1
2024-11-19 23:09:38.543000+00:00,-0.526421,9.584452,-1.7132611,,,,,,,121782.0,167273.0,203558.0,178730.0,1
2024-11-19 23:09:38.562000+00:00,,,,,,,,,,121782.0,167273.0,203558.0,178730.0,1
2024-11-19 23:09:38.553000+00:00,-0.5300102,9.555738,-1.7228324,,,,,,,,,,,1
2024-11-19 23:09:38.564000+00:00,-0.5324031,9.552149,-1.741975,,,,,,,,,,,1
2024-11-19 23:09:38.552000+00:00,,,,,,,,,,121782.0,167273.0,203558.0,178730.0,1
2024-11-19 23:09:38.547000+00:00,,,,,,,,,,121782.0,167273.0,203558.0,178730.0,1
2024-11-19 23:09:38.557000+00:00,,,,,,,,,,121782.0,167273.0,203558.0,178730.0,1
2024-11-19 23:09:38.572000+00:00,,,,,,,,,,121782.0,167273.0,203558.0,178730.0,1
2024-11-19 23:09:38.600000+00:00,,,,,,,,,,121799.0,167294.0,203577.0,178767.0,1
2024-11-19 23:09:38.605000+00:00,,,,,,,,,,121799.0,167294.0,203577.0,178767.0,1
2024-11-19 23:09:38.588000+00:00,-0.51086766,9.63829,-1.8113668,,,,,,,,,,,1
2024-11-19 23:09:38.601000+00:00,-0.5144569,9.554542,-1.7611176,,,,,,,,,,,1
2024-11-19 23:09:38.595000+00:00,,,,,,,,,,121799.0,167294.0,203577.0,178767.0,1
2024-11-19 23:09:38.590000+00:00,-0.50727844,9.584452,-1.7934207,,,,,,,121799.0,167294.0,203577.0,178767.0,1
2024-11-19 23:09:38.615000+00:00,,,,-0.010995574,-0.04153884,-0.0061086523,-20143.0,-2550.0,-3266.0,121799.0,167294.0,203577.0,178767.0,1
2024-11-19 23:09:38.612000+00:00,-0.4965107,9.560523,-1.7455642,,,,,,,,,,,1
2024-11-19 23:09:38.610000+00:00,,,,,,,,,,121799.0,167294.0,203577.0,178767.0,1
2024-11-19 23:09:38.640000+00:00,,,,,,,,,,121684.0,167297.0,203471.0,178741.0,1
2024-11-19 23:09:38.635000+00:00,,,,,,,,,,121684.0,167297.0,203471.0,178741.0,1
2024-11-19 23:09:38.645000+00:00,-0.5084749,9.582059,-1.707279,,,,,,,121684.0,167297.0,203471.0,178741.0,1
2024-11-19 23:09:38.634000+00:00,-0.4989035,9.582059,-1.721636,,,,,,,,,,,1
2024-11-19 23:09:38.625000+00:00,,,,,,,,,,121684.0,167297.0,203471.0,178741.0,1
2024-11-19 23:09:38.623000+00:00,-0.5096713,9.572488,-1.7515463,,,,,,,,,,,1
2024-11-19 23:09:38.630000+00:00,,,,,,,,,,121684.0,167297.0,203471.0,178741.0,1
2024-11-19 23:09:38.655000+00:00,,,,,,,,,,121684.0,167297.0,203471.0,178741.0,1
2024-11-19 23:09:38.621000+00:00,,,,,,,,,,121799.0,167294.0,203577.0,178767.0,1
2024-11-19 23:09:38.650000+00:00,,,,,,,,,,121684.0,167297.0,203471.0,178741.0,1
2024-11-19 23:09:38.667000+00:00,-0.5359923,9.590434,-1.7503499,,,,,,,,,,,1
2024-11-19 23:09:38.665000+00:00,,,,,,,,,,121646.0,167228.0,203392.0,178682.0,1
2024-11-19 23:09:38.678000+00:00,-0.51804614,9.572488,-1.7276181,,,,,,,,,,,1
2024-11-19 23:09:38.680000+00:00,,,,,,,,,,121646.0,167228.0,203392.0,178682.0,1
2024-11-19 23:09:38.689000+00:00,-0.5012964,9.567701,-1.7228324,,,,,,,,,,,1
2024-11-19 23:09:38.685000+00:00,,,,,,,,,,121646.0,167228.0,203392.0,178682.0,1
2024-11-19 23:09:38.660000+00:00,,,,,,,,,,121684.0,167297.0,203471.0,178741.0,1
2024-11-19 23:09:38.670000+00:00,,,,,,,,,,121646.0,167228.0,203392.0,178682.0,1
2024-11-19 23:09:38.675000+00:00,,,,,,,,,,121646.0,167228.0,203392.0,178682.0,1
2024-11-19 23:09:38.657000+00:00,-0.51804614,9.5964155,-1.7300109,-0.0036651916,-0.039095376,-0.010995574,-20117.0,-2631.0,-3337.0,,,,,1
2024-11-19 23:09:38.710000+00:00,-0.47976097,9.59163,-1.7288145,-0.002443461,-0.043982297,-0.0036651916,-20109.0,-2591.0,-3318.0,121634.0,167181.0,203401.0,178606.0,1
2024-11-19 23:09:38.720000+00:00,,,,,,,,,,121634.0,167181.0,203401.0,178606.0,1
2024-11-19 23:09:38.708000+00:00,,,,,,,,,,121634.0,167181.0,203401.0,178606.0,1
2024-11-19 23:09:38.732000+00:00,-0.5048856,9.592826,-1.7455642,,,,,,,,,,,1
2024-11-19 23:09:38.721000+00:00,-0.4965107,9.559327,-1.7264217,,,,,,,,,,,1
2024-11-19 23:09:38.715000+00:00,,,,,,,,,,121634.0,167181.0,203401.0,178606.0,1
2024-11-19 23:09:38.725000+00:00,,,,,,,,,,121634.0,167181.0,203401.0,178606.0,1
2024-11-19 23:09:38.730000+00:00,,,,,,,,,,121634.0,167181.0,203401.0,178606.0,1
2024-11-19 23:09:38.735000+00:00,,,,,,,,,,121634.0,167181.0,203401.0,178606.0,1
2024-11-19 23:09:38.743000+00:00,-0.51086766,9.586844,-1.7371894,,,,,,,,,,,1
2024-11-19 23:09:38.770000+00:00,,,,,,,,,,121597.0,167123.0,203384.0,178571.0,1
2024-11-19 23:09:38.741000+00:00,,,,,,,,,,121597.0,167123.0,203384.0,178571.0,1
2024-11-19 23:09:38.754000+00:00,-0.526421,9.567701,-1.7431715,,,,,,,,,,,1
2024-11-19 23:09:38.755000+00:00,,,,,,,,,,121597.0,167123.0,203384.0,178571.0,1
2024-11-19 23:09:38.760000+00:00,,,,,,,,,,121597.0,167123.0,203384.0,178571.0,1
2024-11-19 23:09:38.751000+00:00,,,,0.0061086523,-0.039095376,-0.019547688,-20218.0,-2542.0,-3269.0,,,,,1
2024-11-19 23:09:38.750000+00:00,,,,,,,,,,121597.0,167123.0,203384.0,178571.0,1
2024-11-19 23:09:38.745000+00:00,,,,,,,,,,121597.0,167123.0,203384.0,178571.0,1
2024-11-19 23:09:38.765000+00:00,-0.5335995,9.572488,-1.7467606,,,,,,,121597.0,167123.0,203384.0,178571.0,1
2024-11-19 23:09:38.841000+00:00,,,,,,,,,,121614.0,167099.0,203399.0,178556.0,1
2024-11-19 23:09:38.842000+00:00,-0.52881384,9.597612,-1.7635103,,,,,,,,,,,1
2024-11-19 23:09:38.834000+00:00,,,,0.009773844,-0.040317103,-0.012217305,-20184.0,-2595.0,-3296.0,,,,,1
2024-11-19 23:09:38.853000+00:00,-0.526421,9.571292,-1.7670996,,,,,,,,,,,1
2024-11-19 23:09:38.846000+00:00,,,,,,,,,,121614.0,167099.0,203399.0,178556.0,1
2024-11-19 23:09:38.836000+00:00,,,,,,,,,,121614.0,167099.0,203399.0,178556.0,1
2024-11-19 23:09:38.829000+00:00,-0.5359923,9.597612,-1.747957,,,,,,,,,,,1
2024-11-19 23:09:38.851000+00:00,,,,,,,,,,121614.0,167099.0,203399.0,178556.0,1
2024-11-19 23:09:38.856000+00:00,,,,,,,,,,121614.0,167099.0,203399.0,178556.0,1
2024-11-19 23:09:38.831000+00:00,-0.5359923,9.597612,-1.747957,,,,,,,121614.0,167099.0,203399.0,178556.0,1
2024-11-19 23:09:38.875000+00:00,-0.5144569,9.59522,-1.7635103,0.009773844,-0.04153884,-0.012217305,-20187.0,-2591.0,-3334.0,,,,,1
2024-11-19 23:09:38.862000+00:00,,,,,,,,,,121628.0,167134.0,203440.0,178606.0,1
2024-11-19 23:09:38.886000+00:00,-0.52522457,9.592826,-1.7730817,,,,,,,121628.0,167134.0,203440.0,178606.0,1
2024-11-19 23:09:38.864000+00:00,-0.526421,9.577272,-1.753939,,,,,,,,,,,1
2024-11-19 23:09:38.876000+00:00,,,,,,,,,,121628.0,167134.0,203440.0,178606.0,1
2024-11-19 23:09:38.871000+00:00,,,,,,,,,,121628.0,167134.0,203440.0,178606.0,1
2024-11-19 23:09:38.881000+00:00,,,,,,,,,,121628.0,167134.0,203440.0,178606.0,1
2024-11-19 23:09:38.891000+00:00,,,,,,,,,,121628.0,167134.0,203440.0,178606.0,1
2024-11-19 23:09:38.866000+00:00,,,,,,,,,,121628.0,167134.0,203440.0,178606.0,1
2024-11-19 23:09:38.926000+00:00,,,,,,,,,,121620.0,167133.0,203395.0,178623.0,1
2024-11-19 23:09:38.921000+00:00,,,,,,,,,,121620.0,167133.0,203395.0,178623.0,1
2024-11-19 23:09:38.908000+00:00,-0.5084749,9.585648,-1.7527426,,,,,,,,,,,1
2024-11-19 23:09:38.916000+00:00,,,,-0.0036651916,-0.04153884,-0.010995574,-20152.0,-2551.0,-3309.0,121620.0,167133.0,203395.0,178623.0,1
2024-11-19 23:09:38.919000+00:00,-0.52163535,9.592826,-1.7407786,,,,,,,,,,,1
2024-11-19 23:09:38.911000+00:00,,,,,,,,,,121620.0,167133.0,203395.0,178623.0,1
2024-11-19 23:09:38.897000+00:00,-0.5228318,9.582059,-1.7635103,,,,,,,,,,,1
2024-11-19 23:09:38.906000+00:00,,,,,,,,,,121620.0,167133.0,203395.0,178623.0,1
2024-11-19 23:09:38.901000+00:00,,,,,,,,,,121620.0,167133.0,203395.0,178623.0,1
2024-11-19 23:09:38.941000+00:00,-0.5084749,9.57847,-1.7192432,,,,,,,,,,,1
2024-11-19 23:09:38.938000+00:00,,,,,,,,,,121620.0,167133.0,203395.0,178623.0,1
2024-11-19 23:09:38.953000+00:00,,,,,,,,,,121612.0,167139.0,203404.0,178623.0,1
2024-11-19 23:09:38.948000+00:00,,,,,,,,,,121612.0,167139.0,203404.0,178623.0,1
2024-11-19 23:09:38.931000+00:00,-0.5240282,9.566505,-1.7371894,,,,,,,,,,,1
2024-11-19 23:09:38.952000+00:00,-0.5036892,9.602398,-1.7240288,,,,,,,,,,,1
2024-11-19 23:09:38.933000+00:00,,,,,,,,,,121620.0,167133.0,203395.0,178623.0,1
2024-11-19 23:09:38.943000+00:00,,,,,,,,,,121612.0,167139.0,203404.0,178623.0,1
2024-11-19 23:09:38.998000+00:00,-0.5084749,9.588041,-1.7790638,,,,,,,,,,,1
2024-11-19 23:09:38.977000+00:00,-0.4965107,9.573684,-1.7407786,-0.0012217305,-0.04153884,-0.009773844,-20083.0,-2613.0,-3328.0,121629.0,167142.0,203423.0,178636.0,1
2024-11-19 23:09:38.982000+00:00,,,,,,,,,,121629.0,167142.0,203423.0,178636.0,1
2024-11-19 23:09:38.992000+00:00,,,,,,,,,,121629.0,167142.0,203423.0,178636.0,1
2024-11-19 23:09:38.997000+00:00,,,,,,,,,,121629.0,167142.0,203423.0,178636.0,1
2024-11-19 23:09:38.987000+00:00,-0.5012964,9.57847,-1.7611176,,,,,,,121629.0,167142.0,203423.0,178636.0,1
2024-11-19 23:09:39.076000+00:00,-0.5168497,9.5760765,-1.7431715,,,,,,,121597.0,167146.0,203403.0,178651.0,1
2024-11-19 23:09:39.099000+00:00,,,,0.007330383,-0.036651913,-0.0061086523,-20112.0,-2543.0,-3335.0,,,,,1
2024-11-19 23:09:39.085000+00:00,,,,,,,,,,121597.0,167146.0,203403.0,178651.0,1
2024-11-19 23:09:39.095000+00:00,,,,,,,,,,121597.0,167146.0,203403.0,178651.0,1
2024-11-19 23:09:39.105000+00:00,,,,,,,,,,121611.0,167164.0,203387.0,178676.0,1
2024-11-19 23:09:39.080000+00:00,,,,,,,,,,121597.0,167146.0,203403.0,178651.0,1
2024-11-19 23:09:39.100000+00:00,,,,,,,,,,121611.0,167164.0,203387.0,178676.0,1
2024-11-19 23:09:39.090000+00:00,,,,,,,,,,121597.0,167146.0,203403.0,178651.0,1
2024-11-19 23:09:39.097000+00:00,-0.53479594,9.601201,-1.782653,,,,,,,,,,,1
2024-11-19 23:09:39.086000+00:00,-0.52522457,9.604791,-1.768296,,,,,,,,,,,1
2024-11-19 23:09:39.109000+00:00,-0.49770713,9.600005,-1.7706888,,,,,,,,,,,1
2024-11-19 23:09:39.116000+00:00,,,,,,,,,,121611.0,167164.0,203387.0,178676.0,1
2024-11-19 23:09:39.121000+00:00,,,,,,,,,,121611.0,167164.0,203387.0,178676.0,1
2024-11-19 23:09:39.126000+00:00,,,,,,,,,,121611.0,167164.0,203387.0,178676.0,1
2024-11-19 23:09:39.140000+00:00,,,,-0.02076942,-0.039095376,-0.0036651916,-20158.0,-2582.0,-3295.0,,,,,1
2024-11-19 23:09:39.119000+00:00,-0.5024928,9.602398,-1.7706888,,,,,,,,,,,1
2024-11-19 23:09:39.130000+00:00,-0.49770713,9.568898,-1.7264217,,,,,,,,,,,1
2024-11-19 23:09:39.136000+00:00,,,,,,,,,,121611.0,167164.0,203387.0,178676.0,1
2024-11-19 23:09:39.131000+00:00,,,,,,,,,,121611.0,167164.0,203387.0,178676.0,1
2024-11-19 23:09:39.111000+00:00,,,,,,,,,,121611.0,167164.0,203387.0,178676.0,1
2024-11-19 23:09:39.163000+00:00,-0.5096713,9.556934,-1.7048862,,,,,,,,,,,1
2024-11-19 23:09:39.166000+00:00,,,,,,,,,,121629.0,167170.0,203454.0,178711.0,1
2024-11-19 23:09:39.161000+00:00,,,,,,,,,,121629.0,167170.0,203454.0,178711.0,1
2024-11-19 23:09:39.171000+00:00,,,,,,,,,,121629.0,167170.0,203454.0,178711.0,1
2024-11-19 23:09:39.174000+00:00,-0.52881384,9.570095,-1.7288145,,,,,,,,,,,1
2024-11-19 23:09:39.146000+00:00,,,,,,,,,,121629.0,167170.0,203454.0,178711.0,1
2024-11-19 23:09:39.151000+00:00,,,,,,,,,,121629.0,167170.0,203454.0,178711.0,1
2024-11-19 23:09:39.152000+00:00,-0.4989035,9.541381,-1.7036898,,,,,,,,,,,1
2024-11-19 23:09:39.156000+00:00,,,,,,,,,,121629.0,167170.0,203454.0,178711.0,1
2024-11-19 23:09:39.142000+00:00,-0.48574302,9.571292,-1.6977078,,,,,,,121629.0,167170.0,203454.0,178711.0,1
2024-11-19 23:09:39.181000+00:00,,,,0.018325957,-0.039095376,-0.019547688,-20206.0,-2502.0,-3321.0,121639.0,167211.0,203449.0,178756.0,1
2024-11-19 23:09:39.202000+00:00,,,,,,,,,,121639.0,167211.0,203449.0,178756.0,1
2024-11-19 23:09:39.196000+00:00,-0.5324031,9.597612,-1.7611176,,,,,,,,,,,1
2024-11-19 23:09:39.197000+00:00,,,,,,,,,,121639.0,167211.0,203449.0,178756.0,1
2024-11-19 23:09:39.207000+00:00,-0.526421,9.614362,-1.7766709,,,,,,,121639.0,167211.0,203449.0,178756.0,1
2024-11-19 23:09:39.187000+00:00,,,,,,,,,,121639.0,167211.0,203449.0,178756.0,1
2024-11-19 23:09:39.185000+00:00,-0.5324031,9.584452,-1.7515463,,,,,,,,,,,1
2024-11-19 23:09:39.192000+00:00,,,,,,,,,,121639.0,167211.0,203449.0,178756.0,1
2024-11-19 23:09:39.177000+00:00,,,,,,,,,,121629.0,167170.0,203454.0,178711.0,1
2024-11-19 23:09:39.242000+00:00,,,,,,,,,,121655.0,167231.0,203430.0,178804.0,1
2024-11-19 23:09:39.217000+00:00,,,,,,,,,,121639.0,167211.0,203449.0,178756.0,1
2024-11-19 23:09:39.227000+00:00,,,,,,,,,,121655.0,167231.0,203430.0,178804.0,1
2024-11-19 23:09:39.222000+00:00,,,,0.002443461,-0.040317103,-0.019547688,-20195.0,-2542.0,-3340.0,121655.0,167231.0,203430.0,178804.0,1
2024-11-19 23:09:39.218000+00:00,-0.5515456,9.571292,-1.7359929,,,,,,,,,,,1
2024-11-19 23:09:39.240000+00:00,-0.52043897,9.580863,-1.7060826,,,,,,,,,,,1
2024-11-19 23:09:39.229000+00:00,-0.53958154,9.562917,-1.707279,,,,,,,,,,,1
2024-11-19 23:09:39.213000+00:00,,,,,,,,,,121639.0,167211.0,203449.0,178756.0,1
2024-11-19 23:09:39.237000+00:00,,,,,,,,,,121655.0,167231.0,203430.0,178804.0,1
2024-11-19 23:09:39.232000+00:00,,,,,,,,,,121655.0,167231.0,203430.0,178804.0,1
2024-11-19 23:09:39.257000+00:00,,,,,,,,,,121655.0,167231.0,203430.0,178804.0,1
2024-11-19 23:09:39.251000+00:00,-0.52522457,9.577272,-1.7288145,,,,,,,,,,,1
2024-11-19 23:09:39.252000+00:00,,,,,,,,,,121655.0,167231.0,203430.0,178804.0,1
2024-11-19 23:09:39.273000+00:00,-0.5084749,9.566505,-1.7778674,,,,,,,,,,,1
2024-11-19 23:09:39.265000+00:00,,,,0.029321533,-0.039095376,-0.014660766,-20125.0,-2566.0,-3323.0,,,,,1
2024-11-19 23:09:39.267000+00:00,,,,,,,,,,121621.0,167261.0,203468.0,178822.0,1
2024-11-19 23:09:39.272000+00:00,,,,,,,,,,121621.0,167261.0,203468.0,178822.0,1
2024-11-19 23:09:39.277000+00:00,,,,,,,,,,121621.0,167261.0,203468.0,178822.0,1
2024-11-19 23:09:39.248000+00:00,,,,,,,,,,121655.0,167231.0,203430.0,178804.0,1
2024-11-19 23:09:39.262000+00:00,-0.51086766,9.56531,-1.7575283,,,,,,,121621.0,167261.0,203468.0,178822.0,1
2024-11-19 23:09:39.297000+00:00,,,,,,,,,,121621.0,167261.0,203468.0,178822.0,1
2024-11-19 23:09:39.308000+00:00,,,,,,,,,,121620.0,167269.0,203433.0,178854.0,1
2024-11-19 23:09:39.302000+00:00,,,,,,,,,,121620.0,167269.0,203433.0,178854.0,1
2024-11-19 23:09:39.283000+00:00,,,,,,,,,,121621.0,167261.0,203468.0,178822.0,1
2024-11-19 23:09:39.295000+00:00,-0.5012964,9.580863,-1.7850459,,,,,,,,,,,1
2024-11-19 23:09:39.313000+00:00,,,,,,,,,,121620.0,167269.0,203433.0,178854.0,1
2024-11-19 23:09:39.287000+00:00,,,,,,,,,,121621.0,167261.0,203468.0,178822.0,1
2024-11-19 23:09:39.292000+00:00,,,,,,,,,,121621.0,167261.0,203468.0,178822.0,1
2024-11-19 23:09:39.284000+00:00,-0.50727844,9.577272,-1.7838495,,,,,,,,,,,1
2024-11-19 23:09:39.306000+00:00,-0.5240282,9.570095,-1.7730817,0.02076942,-0.04153884,-0.013439035,-20165.0,-2551.0,-3355.0,,,,,1
2024-11-19 23:09:39.351000+00:00,,,,,,,,,,202058.0,366675.0,353577.0,182338.0,1
2024-11-19 23:09:39.341000+00:00,-0.5431708,9.554542,-1.7192432,,,,,,,202058.0,366675.0,353577.0,182338.0,1
2024-11-19 23:09:39.356000+00:00,,,,,,,,,,202058.0,366675.0,353577.0,182338.0,1
2024-11-19 23:09:39.363000+00:00,-0.54676,9.5760765,-1.768296,,,,,,,,,,,1
2024-11-19 23:09:39.361000+00:00,,,,,,,,,,202058.0,366675.0,353577.0,182338.0,1
2024-11-19 23:09:39.366000+00:00,,,,,,,,,,202058.0,366675.0,353577.0,182338.0,1
2024-11-19 23:09:39.347000+00:00,,,,0.002443461,-0.037873644,-0.018325957,-20127.0,-2509.0,-3343.0,,,,,1
2024-11-19 23:09:39.346000+00:00,,,,,,,,,,202058.0,366675.0,353577.0,182338.0,1
2024-11-19 23:09:39.352000+00:00,-0.5563313,9.568898,-1.7359929,,,,,,,,,,,1
2024-11-19 23:09:39.339000+00:00,-0.5431708,9.554542,-1.7192432,,,,,,,,,,,1
2024-11-19 23:09:39.396000+00:00,-0.4953143,9.602398,-1.788635,,,,,,,121651.0,167333.0,203501.0,178949.0,1
2024-11-19 23:09:39.376000+00:00,,,,,,,,,,202058.0,366675.0,353577.0,182338.0,1
2024-11-19 23:09:39.374000+00:00,-0.54197437,9.566505,-1.7694924,,,,,,,,,,,1
2024-11-19 23:09:39.385000+00:00,-0.5192425,9.579666,-1.7922243,,,,,,,,,,,1
2024-11-19 23:09:39.388000+00:00,,,,0.02076942,-0.039095376,-0.010995574,-20110.0,-2558.0,-3365.0,,,,,1
2024-11-19 23:09:39.401000+00:00,,,,,,,,,,121651.0,167333.0,203501.0,178949.0,1
2024-11-19 23:09:39.381000+00:00,,,,,,,,,,121651.0,167333.0,203501.0,178949.0,1
2024-11-19 23:09:39.391000+00:00,,,,,,,,,,121651.0,167333.0,203501.0,178949.0,1
2024-11-19 23:09:39.372000+00:00,,,,,,,,,,202058.0,366675.0,353577.0,182338.0,1
2024-11-19 23:09:39.386000+00:00,,,,,,,,,,121651.0,167333.0,203501.0,178949.0,1
2024-11-19 23:09:39.418000+00:00,-0.4965107,9.585648,-1.7874386,,,,,,,,,,,1
2024-11-19 23:09:39.411000+00:00,,,,,,,,,,121651.0,167333.0,203501.0,178949.0,1
2024-11-19 23:09:39.421000+00:00,,,,,,,,,,121646.0,167358.0,203449.0,178981.0,1
2024-11-19 23:09:39.436000+00:00,,,,,,,,,,121646.0,167358.0,203449.0,178981.0,1
2024-11-19 23:09:39.416000+00:00,,,,,,,,,,121651.0,167333.0,203501.0,178949.0,1
2024-11-19 23:09:39.426000+00:00,,,,,,,,,,121646.0,167358.0,203449.0,178981.0,1
2024-11-19 23:09:39.431000+00:00,,,,,,,,,,121646.0,167358.0,203449.0,178981.0,1
2024-11-19 23:09:39.429000+00:00,-0.4989035,9.567701,-1.7718853,-0.010995574,-0.04153884,-0.0036651916,-20174.0,-2495.0,-3319.0,,,,,1
2024-11-19 23:09:39.407000+00:00,-0.48574302,9.583255,-1.7850459,,,,,,,,,,,1
2024-11-19 23:09:39.488000+00:00,-0.587438,9.568898,-1.7515463,,,,,,,,,,,1
2024-11-19 23:09:39.510000+00:00,,,,,,,,,,121516.0,167318.0,203347.0,178890.0,1
2024-11-19 23:09:39.501000+00:00,-0.5575277,9.603595,-1.7790638,,,,,,,,,,,1
2024-11-19 23:09:39.512000+00:00,-0.54197437,9.588041,-1.7766709,,,,,,,,,,,1
2024-11-19 23:09:39.515000+00:00,,,,,,,,,,121516.0,167318.0,203347.0,178890.0,1
2024-11-19 23:09:39.505000+00:00,,,,,,,,,,121516.0,167318.0,203347.0,178890.0,1
2024-11-19 23:09:39.500000+00:00,,,,,,,,,,121516.0,167318.0,203347.0,178890.0,1
2024-11-19 23:09:39.490000+00:00,-0.587438,9.568898,-1.7515463,0.0,-0.039095376,-0.017104227,-20187.0,-2573.0,-3355.0,121547.0,167357.0,203372.0,178959.0,1
2024-11-19 23:09:39.495000+00:00,,,,,,,,,,121547.0,167357.0,203372.0,178959.0,1
2024-11-19 23:09:39.567000+00:00,-0.47617176,9.548559,-1.7635103,,,,,,,,,,,1
2024-11-19 23:09:39.561000+00:00,,,,,,,,,,121494.0,167292.0,203320.0,178860.0,1
2024-11-19 23:09:39.566000+00:00,,,,,,,,,,121494.0,167292.0,203320.0,178860.0,1
2024-11-19 23:09:39.578000+00:00,-0.47497532,9.580863,-1.7754745,,,,,,,,,,,1
2024-11-19 23:09:39.572000+00:00,,,,0.019547688,-0.039095376,-0.009773844,-20165.0,-2589.0,-3284.0,,,,,1
2024-11-19 23:09:39.557000+00:00,-0.4845466,9.536595,-1.7347965,,,,,,,121494.0,167292.0,203320.0,178860.0,1
2024-11-19 23:09:39.581000+00:00,,,,,,,,,,121517.0,167253.0,203345.0,178823.0,1
2024-11-19 23:09:39.571000+00:00,,,,,,,,,,121494.0,167292.0,203320.0,178860.0,1
2024-11-19 23:09:39.586000+00:00,,,,,,,,,,121517.0,167253.0,203345.0,178823.0,1
2024-11-19 23:09:39.576000+00:00,,,,,,,,,,121494.0,167292.0,203320.0,178860.0,1
2024-11-19 23:09:39.622000+00:00,-0.5431708,9.568898,-1.741975,,,,,,,,,,,1
2024-11-19 23:09:39.615000+00:00,,,,,,,,,,121517.0,167253.0,203345.0,178823.0,1
2024-11-19 23:09:39.630000+00:00,,,,,,,,,,121586.0,167299.0,203423.0,178850.0,1
2024-11-19 23:09:39.635000+00:00,,,,,,,,,,121586.0,167299.0,203423.0,178850.0,1
2024-11-19 23:09:39.620000+00:00,,,,,,,,,,121586.0,167299.0,203423.0,178850.0,1
2024-11-19 23:09:39.608000+00:00,-0.5084749,9.602398,-1.8125633,,,,,,,,,,,1
2024-11-19 23:09:39.633000+00:00,-0.5359923,9.566505,-1.7240288,,,,,,,,,,,1
2024-11-19 23:09:39.625000+00:00,,,,,,,,,,121586.0,167299.0,203423.0,178850.0,1
2024-11-19 23:09:39.613000+00:00,,,,-0.012217305,-0.039095376,-0.017104227,-20178.0,-2535.0,-3363.0,,,,,1
2024-11-19 23:09:39.610000+00:00,-0.526421,9.590434,-1.7730817,,,,,,,121517.0,167253.0,203345.0,178823.0,1
2024-11-19 23:09:39.665000+00:00,,,,,,,,,,121596.0,167283.0,203438.0,178886.0,1
2024-11-19 23:09:39.650000+00:00,,,,,,,,,,121586.0,167299.0,203423.0,178850.0,1
2024-11-19 23:09:39.660000+00:00,,,,,,,,,,121596.0,167283.0,203438.0,178886.0,1
2024-11-19 23:09:39.670000+00:00,,,,,,,,,,121596.0,167283.0,203438.0,178886.0,1
2024-11-19 23:09:39.644000+00:00,-0.5551349,9.573684,-1.721636,,,,,,,,,,,1
2024-11-19 23:09:39.641000+00:00,,,,,,,,,,121586.0,167299.0,203423.0,178850.0,1
2024-11-19 23:09:39.666000+00:00,-0.55393845,9.552149,-1.7084755,,,,,,,,,,,1
2024-11-19 23:09:39.655000+00:00,-0.5431708,9.579666,-1.7108684,,,,,,,121586.0,167299.0,203423.0,178850.0,1
2024-11-19 23:09:39.645000+00:00,,,,,,,,,,121586.0,167299.0,203423.0,178850.0,1
2024-11-19 23:09:39.654000+00:00,,,,-0.012217305,-0.039095376,-0.014660766,-20149.0,-2583.0,-3346.0,,,,,1
2024-11-19 23:09:39.677000+00:00,-0.56111693,9.550952,-1.7551355,,,,,,,,,,,1
2024-11-19 23:09:39.688000+00:00,-0.53838515,9.574881,-1.7850459,,,,,,,,,,,1
2024-11-19 23:09:39.690000+00:00,,,,,,,,,,121596.0,167283.0,203438.0,178886.0,1
2024-11-19 23:09:39.685000+00:00,,,,,,,,,,121596.0,167283.0,203438.0,178886.0,1
2024-11-19 23:09:39.680000+00:00,,,,,,,,,,121596.0,167283.0,203438.0,178886.0,1
2024-11-19 23:09:39.695000+00:00,,,,0.02565634,-0.04153884,-0.009773844,-20128.0,-2600.0,-3297.0,121596.0,167283.0,203438.0,178886.0,1
2024-11-19 23:09:39.701000+00:00,,,,,,,,,,121582.0,167304.0,203431.0,178887.0,1
2024-11-19 23:09:39.676000+00:00,,,,,,,,,,121596.0,167283.0,203438.0,178886.0,1
2024-11-19 23:09:39.706000+00:00,,,,,,,,,,121582.0,167304.0,203431.0,178887.0,1
2024-11-19 23:09:39.699000+00:00,-0.52163535,9.577272,-1.788635,,,,,,,,,,,1
2024-11-19 23:09:39.713000+00:00,,,,,,,,,,121582.0,167304.0,203431.0,178887.0,1
2024-11-19 23:09:39.723000+00:00,,,,,,,,,,121582.0,167304.0,203431.0,178887.0,1
2024-11-19 23:09:39.711000+00:00,-0.51086766,9.583255,-1.8233309,,,,,,,,,,,1
2024-11-19 23:09:39.721000+00:00,-0.4941179,9.613166,-1.8352951,,,,,,,,,,,1
2024-11-19 23:09:39.718000+00:00,,,,,,,,,,121582.0,167304.0,203431.0,178887.0,1
2024-11-19 23:09:39.736000+00:00,,,,-0.008552114,-0.042760566,-0.004886922,-20177.0,-2564.0,-3320.0,,,,,1
2024-11-19 23:09:39.733000+00:00,,,,,,,,,,121582.0,167304.0,203431.0,178887.0,1
2024-11-19 23:09:39.728000+00:00,,,,,,,,,,121582.0,167304.0,203431.0,178887.0,1
2024-11-19 23:09:39.732000+00:00,-0.49052867,9.603595,-1.8149561,,,,,,,,,,,1
2024-11-19 23:09:39.738000+00:00,,,,,,,,,,121606.0,167325.0,203460.0,178936.0,1
2024-11-19 23:09:39.773000+00:00,,,,,,,,,,121606.0,167325.0,203460.0,178936.0,1
2024-11-19 23:09:39.748000+00:00,,,,,,,,,,121606.0,167325.0,203460.0,178936.0,1
2024-11-19 23:09:39.768000+00:00,,,,,,,,,,121606.0,167325.0,203460.0,178936.0,1
2024-11-19 23:09:39.763000+00:00,,,,,,,,,,121606.0,167325.0,203460.0,178936.0,1
2024-11-19 23:09:39.776000+00:00,-0.53958154,9.547363,-1.7108684,,,,,,,,,,,1
2024-11-19 23:09:39.744000+00:00,-0.5132605,9.568898,-1.7742782,,,,,,,121606.0,167325.0,203460.0,178936.0,1
2024-11-19 23:09:39.754000+00:00,-0.5024928,9.559327,-1.7491535,,,,,,,,,,,1
2024-11-19 23:09:39.758000+00:00,,,,,,,,,,121606.0,167325.0,203460.0,178936.0,1
2024-11-19 23:09:39.753000+00:00,,,,,,,,,,121606.0,167325.0,203460.0,178936.0,1
2024-11-19 23:09:39.765000+00:00,-0.51804614,9.570095,-1.7371894,,,,,,,,,,,1
2024-11-19 23:09:39.842000+00:00,-0.4941179,9.579666,-1.7814566,,,,,,,,,,,1
2024-11-19 23:09:39.845000+00:00,,,,,,,,,,121607.0,167342.0,203450.0,178949.0,1
2024-11-19 23:09:39.835000+00:00,,,,,,,,,,121607.0,167342.0,203450.0,178949.0,1
2024-11-19 23:09:39.818000+00:00,,,,0.017104227,-0.040317103,-0.013439035,-20163.0,-2594.0,-3288.0,,,,,1
2024-11-19 23:09:39.825000+00:00,,,,,,,,,,121607.0,167342.0,203450.0,178949.0,1
2024-11-19 23:09:39.816000+00:00,,,,,,,,,,121607.0,167342.0,203450.0,178949.0,1
2024-11-19 23:09:39.831000+00:00,-0.5240282,9.568898,-1.7742782,,,,,,,,,,,1
2024-11-19 23:09:39.830000+00:00,,,,,,,,,,121607.0,167342.0,203450.0,178949.0,1
2024-11-19 23:09:39.820000+00:00,-0.5371887,9.574881,-1.7635103,,,,,,,121607.0,167342.0,203450.0,178949.0,1
2024-11-19 23:09:39.840000+00:00,,,,,,,,,,121607.0,167342.0,203450.0,178949.0,1
2024-11-19 23:09:39.864000+00:00,-0.4821538,9.56172,-1.7862422,,,,,,,,,,,1
2024-11-19 23:09:39.851000+00:00,,,,,,,,,,121607.0,167342.0,203450.0,178949.0,1
2024-11-19 23:09:39.853000+00:00,-0.4725825,9.5964155,-1.7778674,,,,,,,,,,,1
2024-11-19 23:09:39.859000+00:00,,,,0.004886922,-0.045204025,-0.0036651916,-20171.0,-2524.0,-3262.0,,,,,1
2024-11-19 23:09:39.870000+00:00,,,,,,,,,,121605.0,167359.0,203453.0,178958.0,1
2024-11-19 23:09:39.880000+00:00,,,,,,,,,,121605.0,167359.0,203453.0,178958.0,1
2024-11-19 23:09:39.855000+00:00,,,,,,,,,,121607.0,167342.0,203450.0,178949.0,1
2024-11-19 23:09:39.865000+00:00,,,,,,,,,,121605.0,167359.0,203453.0,178958.0,1
2024-11-19 23:09:39.860000+00:00,,,,,,,,,,121605.0,167359.0,203453.0,178958.0,1
2024-11-19 23:09:39.875000+00:00,-0.5001,9.556934,-1.7563319,,,,,,,121605.0,167359.0,203453.0,178958.0,1
2024-11-19 23:09:39.930000+00:00,,,,,,,,,,121604.0,167368.0,203446.0,178976.0,1
2024-11-19 23:09:39.910000+00:00,-0.5431708,9.567701,-1.747957,0.002443461,-0.043982297,-0.019547688,-20123.0,-2578.0,-3320.0,121604.0,167368.0,203446.0,178976.0,1
2024-11-19 23:09:39.915000+00:00,,,,,,,,,,121604.0,167368.0,203446.0,178976.0,1
2024-11-19 23:09:39.925000+00:00,,,,,,,,,,121604.0,167368.0,203446.0,178976.0,1
2024-11-19 23:09:39.935000+00:00,,,,,,,,,,121604.0,167368.0,203446.0,178976.0,1
2024-11-19 23:09:39.920000+00:00,,,,,,,,,,121604.0,167368.0,203446.0,178976.0,1
2024-11-19 23:09:39.921000+00:00,-0.55274206,9.590434,-1.7898315,,,,,,,,,,,1
2024-11-19 23:09:39.908000+00:00,,,,,,,,,,121604.0,167368.0,203446.0,178976.0,1
2024-11-19 23:09:39.932000+00:00,-0.54915285,9.610773,-1.7958136,,,,,,,,,,,1
2024-11-19 23:09:39.943000+00:00,-0.5587241,9.59163,-1.7862422,,,,,,,,,,,1
2024-11-19 23:09:39.941000+00:00,,,,,,,,,,121598.0,167397.0,203457.0,179012.0,1
2024-11-19 23:09:39.954000+00:00,-0.5084749,9.577272,-1.7383858,,,,,,,,,,,1
2024-11-19 23:09:39.977000+00:00,-0.5084749,9.577272,-1.7383858,,,,,,,121598.0,167410.0,203439.0,179022.0,1
2024-11-19 23:09:39.982000+00:00,,,,,,,,,,121598.0,167410.0,203439.0,179022.0,1
2024-11-19 23:09:39.950000+00:00,,,,,,,,,,121598.0,167397.0,203457.0,179012.0,1
2024-11-19 23:09:39.987000+00:00,,,,,,,,,,121598.0,167410.0,203439.0,179022.0,1
2024-11-19 23:09:39.951000+00:00,,,,-0.010995574,-0.036651913,-0.012217305,-20151.0,-2517.0,-3261.0,,,,,1
2024-11-19 23:09:39.945000+00:00,,,,,,,,,,121598.0,167397.0,203457.0,179012.0,1
2024-11-19 23:09:39.989000+00:00,-0.4953143,9.550952,-1.7324038,,,,,,,,,,,1
2024-11-19 23:09:39.992000+00:00,,,,-0.0036651916,-0.04153884,-0.0012217305,-20113.0,-2557.0,-3341.0,121598.0,167410.0,203439.0,179022.0,1
2024-11-19 23:09:39.999000+00:00,-0.49770713,9.548559,-1.7300109,,,,,,,,,,,1
2024-11-19 23:09:39.997000+00:00,,,,,,,,,,121598.0,167410.0,203439.0,179022.0,1
2024-11-19 23:09:40.032000+00:00,-0.5024928,9.582059,-1.802992,,,,,,,,,,,1
2024-11-19 23:09:40.033000+00:00,,,,0.019547688,-0.039095376,-0.018325957,-20083.0,-2565.0,-3310.0,121625.0,167441.0,203496.0,179084.0,1
